,reward,total_trial_time,accuracy,cp_with_slow_fast,cumulative_reward,high_val_cue,iti,rt,solution,choice,ID,condition
0,0.0,2.5647530555725098,1.0,-1.0,0.0,112.0,0.26650311724964926,1.265454053878784,1.0,1.0,758,lvhc
1,62.0,1.5710289478302,1.0,0.0,62.0,112.0,0.28762673169128977,0.2779109477996826,1.0,1.0,758,lvhc
2,55.0,2.015825033187866,1.0,0.0,117.0,112.0,0.6198437512018152,0.409229040145874,1.0,1.0,758,lvhc
3,60.0,1.7989771366119387,1.0,0.0,177.0,112.0,0.4857086957753702,0.32573509216308594,1.0,1.0,758,lvhc
4,62.0,1.9119949340820312,1.0,0.0,239.0,112.0,0.5810355176355776,0.33179593086242676,0.0,0.0,758,lvhc
5,59.0,1.6995351314544676,1.0,0.0,298.0,112.0,0.447435581664089,0.264819860458374,1.0,1.0,758,lvhc
6,56.0,1.7612509727478027,1.0,0.0,354.0,112.0,0.4587591865238922,0.31688499450683594,0.0,0.0,758,lvhc
7,60.0,1.8273489475250244,1.0,0.0,414.0,112.0,0.4528831619308633,0.3833329677581787,0.0,0.0,758,lvhc
8,61.0,1.728046178817749,1.0,0.0,475.0,112.0,0.39770641660936845,0.32795596122741694,0.0,0.0,758,lvhc
9,56.0,2.217977046966553,1.0,0.0,531.0,112.0,0.7320984746170202,0.496394157409668,1.0,1.0,758,lvhc
10,56.0,1.8992249965667725,1.0,0.0,587.0,112.0,0.6315118996101908,0.273129940032959,0.0,0.0,758,lvhc
11,56.0,1.7782058715820315,1.0,0.0,643.0,112.0,0.476636556841161,0.3168699741363525,1.0,1.0,758,lvhc
12,50.0,1.7591161727905273,1.0,0.0,693.0,112.0,0.4358767656905284,0.3355751037597656,0.0,0.0,758,lvhc
13,57.0,1.5938990116119387,1.0,0.0,750.0,112.0,0.29665081831737045,0.3029530048370361,1.0,1.0,758,lvhc
14,61.0,1.6878418922424319,1.0,0.0,811.0,112.0,0.3012068483931101,0.41070699691772466,1.0,1.0,758,lvhc
15,59.0,1.9508450031280515,1.0,0.0,870.0,112.0,0.56852988202533,0.384727954864502,0.0,0.0,758,lvhc
16,56.0,1.6769189834594727,1.0,0.0,926.0,112.0,0.4456279661300617,0.23083996772766116,0.0,0.0,758,lvhc
17,62.0,1.9365868568420408,1.0,0.0,988.0,112.0,0.49892794256426,0.4541618824005127,0.0,0.0,758,lvhc
18,54.0,2.6335489749908447,1.0,0.0,1042.0,112.0,0.6990471595103311,0.9392230510711668,1.0,1.0,758,lvhc
19,59.0,1.85165810585022,1.0,0.0,1101.0,112.0,0.500980775360022,0.35286998748779297,1.0,1.0,758,lvhc
20,55.0,1.9659130573272705,1.0,0.0,1156.0,112.0,0.6834846513237516,0.28810906410217285,1.0,1.0,758,lvhc
21,60.0,1.6948258876800537,1.0,0.0,1216.0,112.0,0.42863330587937054,0.26848483085632324,1.0,1.0,758,lvhc
22,56.0,1.6248748302459715,1.0,0.0,1272.0,112.0,0.42027958186376563,0.21515607833862305,1.0,1.0,758,lvhc
23,56.0,2.052874088287353,1.0,0.0,1328.0,112.0,0.7062523308642552,0.3528809547424316,0.0,0.0,758,lvhc
24,40.0,1.8925900459289553,0.0,0.0,1368.0,112.0,0.7488650372032317,0.16000008583068848,0.0,1.0,758,lvhc
25,56.0,1.8454139232635496,1.0,0.0,1424.0,112.0,0.5778661657186162,0.2730438709259033,1.0,1.0,758,lvhc
26,61.0,1.9722208976745603,1.0,0.0,1485.0,112.0,0.6833980508177834,0.29778218269348145,1.0,1.0,758,lvhc
27,57.0,1.5881669521331787,1.0,0.0,1542.0,112.0,0.28874060403444873,0.308521032333374,0.0,0.0,758,lvhc
28,56.0,2.1017367839813232,1.0,0.0,1598.0,112.0,0.7401402057719328,0.36323022842407227,0.0,0.0,758,lvhc
29,56.0,1.742434024810791,1.0,0.0,1654.0,112.0,0.5494787029879828,0.20835494995117188,0.0,0.0,758,lvhc
30,62.0,2.0015220642089844,1.0,0.0,1716.0,112.0,0.700933056912188,0.2944090366363525,1.0,1.0,758,lvhc
31,63.0,1.8583500385284424,1.0,0.0,1779.0,112.0,0.5761564007039732,0.28744697570800787,0.0,0.0,758,lvhc
32,53.0,2.039362907409668,1.0,0.0,1832.0,112.0,0.7321041636303642,0.324505090713501,0.0,0.0,758,lvhc
33,56.0,1.7567272186279297,1.0,0.0,1888.0,112.0,0.4392205169235257,0.3205571174621582,1.0,1.0,758,lvhc
34,56.0,2.1536509990692134,1.0,0.0,1944.0,112.0,0.7260029103553478,0.43769311904907227,0.0,0.0,758,lvhc
35,62.0,1.7834668159484863,1.0,0.0,2006.0,112.0,0.4265369231270514,0.3627541065216064,0.0,0.0,758,lvhc
36,59.0,1.84968900680542,1.0,0.0,2065.0,112.0,0.5261943467537,0.33046412467956543,1.0,1.0,758,lvhc
37,54.0,2.0065667629241943,1.0,0.0,2119.0,112.0,0.682705726872964,0.3334791660308838,1.0,1.0,758,lvhc
38,61.0,1.7201268672943115,1.0,0.0,2180.0,112.0,0.3865407215001743,0.33593010902404785,1.0,1.0,758,lvhc
39,56.0,1.868502140045166,1.0,0.0,2236.0,112.0,0.4883502198584458,0.3803131580352784,0.0,0.0,758,lvhc
40,56.0,1.9286220073699951,1.0,0.0,2292.0,112.0,0.6169340857449477,0.32167506217956543,0.0,0.0,758,lvhc
41,57.0,1.9161851406097408,1.0,0.0,2349.0,112.0,0.6997896503438117,0.2224218845367432,0.0,0.0,758,lvhc
42,59.0,1.8603739738464355,1.0,0.0,2408.0,112.0,0.5437327035498749,0.3108699321746826,1.0,1.0,758,lvhc
43,56.0,1.8006210327148435,1.0,0.0,2464.0,112.0,0.5277754145870708,0.27990293502807617,0.0,0.0,758,lvhc
44,62.0,1.6452381610870361,1.0,0.0,2526.0,112.0,0.4565144697121098,0.20296907424926758,0.0,0.0,758,lvhc
45,60.0,1.7039258480072017,1.0,0.0,2586.0,112.0,0.44386497815364934,0.27001214027404785,1.0,1.0,758,lvhc
46,55.0,1.8532621860504153,1.0,0.0,2641.0,112.0,0.5304548913168255,0.33806514739990234,0.0,0.0,758,lvhc
47,61.0,1.8832099437713623,1.0,0.0,2702.0,112.0,0.6802410547751128,0.22112703323364255,0.0,0.0,758,lvhc
48,56.0,1.8477430343627927,1.0,0.0,2758.0,112.0,0.644767485731652,0.22385406494140625,1.0,1.0,758,lvhc
49,61.0,1.638345956802368,1.0,0.0,2819.0,112.0,0.3002012942401452,0.34494590759277344,1.0,1.0,758,lvhc
50,47.0,1.7592000961303709,0.0,0.0,2866.0,112.0,0.4926380697329524,0.2709989547729492,0.0,1.0,758,lvhc
51,52.0,1.9019310474395752,1.0,0.0,2918.0,112.0,0.6444844405747439,0.2749900817871094,1.0,1.0,758,lvhc
52,59.0,1.9017798900604248,1.0,0.0,2977.0,112.0,0.6463533958429908,0.2741320133209228,1.0,1.0,758,lvhc
53,54.0,1.8811700344085691,1.0,0.0,3031.0,112.0,0.6609012746861147,0.2371699810028076,1.0,1.0,758,lvhc
54,59.0,1.7929441928863523,1.0,0.0,3090.0,112.0,0.5207618272194972,0.2918879985809326,0.0,0.0,758,lvhc
55,65.0,1.7944688796997068,1.0,0.0,3155.0,112.0,0.5486295758750761,0.2579739093780517,1.0,1.0,758,lvhc
56,61.0,1.7129781246185305,1.0,0.0,3216.0,112.0,0.5116951371098735,0.1990721225738525,1.0,1.0,758,lvhc
57,37.0,1.5804958343505857,0.0,0.0,3253.0,112.0,0.3591069749849692,0.24102711677551264,0.0,1.0,758,lvhc
58,59.0,1.6975030899047854,1.0,0.0,3312.0,112.0,0.40660404365300823,0.2997398376464844,0.0,0.0,758,lvhc
59,52.0,1.629223108291626,1.0,0.0,3364.0,112.0,0.3692817912576656,0.26688408851623535,1.0,1.0,758,lvhc
60,51.0,1.6888489723205566,1.0,0.0,3415.0,112.0,0.4414685997880454,0.2595498561859131,1.0,1.0,758,lvhc
61,56.0,1.84340500831604,1.0,0.0,3471.0,112.0,0.5847972636133993,0.26835417747497564,1.0,1.0,758,lvhc
62,42.0,1.68003511428833,0.0,0.0,3513.0,112.0,0.46504829527523,0.2253890037536621,0.0,1.0,758,lvhc
63,56.0,1.9743239879608157,1.0,0.0,3569.0,112.0,0.7391604310813911,0.260807991027832,0.0,0.0,758,lvhc
64,56.0,1.6739759445190427,1.0,0.0,3625.0,112.0,0.3469501742647824,0.33250999450683594,0.0,0.0,758,lvhc
65,53.0,1.805790901184082,1.0,0.0,3678.0,112.0,0.4860260661141659,0.33696818351745605,1.0,1.0,758,lvhc
66,53.0,1.807788133621216,1.0,0.0,3731.0,112.0,0.4772354691196725,0.3302688598632812,1.0,1.0,758,lvhc
67,56.0,1.5196809768676756,1.0,0.0,3787.0,112.0,0.2638932711755408,0.2723610401153565,0.0,0.0,758,lvhc
68,53.0,1.64869499206543,1.0,0.0,3840.0,112.0,0.3625392510940493,0.3078320026397705,1.0,1.0,758,lvhc
69,59.0,1.6560311317443845,1.0,0.0,3899.0,112.0,0.385295247729465,0.2887840270996094,0.0,0.0,758,lvhc
70,61.0,1.5999538898468015,1.0,0.0,3960.0,112.0,0.30207086828621105,0.2936270236968994,0.0,0.0,758,lvhc
71,42.0,1.8338971138000488,0.0,0.0,4002.0,112.0,0.585742206906852,0.2602250576019287,1.0,0.0,758,lvhc
72,56.0,1.848328113555908,1.0,0.0,4058.0,112.0,0.5342120720422353,0.32595896720886236,0.0,0.0,758,lvhc
73,55.0,1.766824960708618,1.0,0.0,4113.0,112.0,0.4678378238196849,0.30927896499633784,0.0,0.0,758,lvhc
74,57.0,1.8770821094512935,1.0,0.0,4170.0,112.0,0.6115295762272179,0.2614061832427978,0.0,0.0,758,lvhc
75,55.0,1.792809009552002,1.0,0.0,4225.0,112.0,0.5544899975320232,0.25584411621093756,1.0,1.0,758,lvhc
76,54.0,1.94414496421814,1.0,0.0,4279.0,112.0,0.681918259600863,0.2728400230407715,0.0,0.0,758,lvhc
77,56.0,1.9749281406402588,1.0,0.0,4335.0,112.0,0.6569773692956666,0.31595301628112793,1.0,1.0,758,lvhc
78,55.0,1.9909060001373289,1.0,0.0,4390.0,112.0,0.6645633953019868,0.3343279361724853,1.0,1.0,758,lvhc
79,61.0,1.5383970737457278,1.0,0.0,4451.0,112.0,0.25350681331896324,0.30506014823913574,1.0,1.0,758,lvhc
80,62.0,1.9230120182037356,1.0,0.0,4513.0,112.0,0.5762601773152423,0.3572142124176025,1.0,1.0,758,lvhc
81,60.0,1.6152691841125488,1.0,0.0,4573.0,112.0,0.3251980643568377,0.3015868663787841,1.0,1.0,758,lvhc
82,56.0,1.9525239467620847,1.0,0.0,4629.0,112.0,0.5442538430425745,0.4169278144836425,0.0,0.0,758,lvhc
83,56.0,1.8944439888000488,1.0,0.0,4685.0,112.0,0.5554060487252154,0.3489198684692382,0.0,0.0,758,lvhc
84,60.0,1.6214189529418943,1.0,0.0,4745.0,112.0,0.29388610570758283,0.3379418849945068,0.0,0.0,758,lvhc
85,56.0,1.8720128536224363,1.0,0.0,4801.0,112.0,0.36586597369955043,0.5274448394775391,1.0,1.0,758,lvhc
86,59.0,1.9562110900878904,1.0,0.0,4860.0,112.0,0.6052635468726397,0.3512148857116699,0.0,0.0,758,lvhc
87,56.0,1.6881041526794431,1.0,0.0,4916.0,112.0,0.41031349606701195,0.2902672290802002,0.0,0.0,758,lvhc
88,56.0,1.797459840774536,1.0,0.0,4972.0,112.0,0.441186555325765,0.3689918518066406,0.0,0.0,758,lvhc
89,57.0,1.9224488735198972,1.0,0.0,5029.0,112.0,0.6135089436481647,0.3140220642089844,1.0,1.0,758,lvhc
90,61.0,1.9855561256408687,1.0,0.0,5090.0,112.0,0.6824004138993336,0.32642316818237305,0.0,0.0,758,lvhc
91,66.0,1.5585358142852783,1.0,0.0,5156.0,112.0,0.27477664610515773,0.2795228958129883,1.0,1.0,758,lvhc
92,57.0,2.0145411491394043,1.0,0.0,5213.0,112.0,0.6723511712889825,0.34957814216613764,0.0,0.0,758,lvhc
93,56.0,1.8279080390930171,1.0,0.0,5269.0,112.0,0.5171842028250765,0.3169898986816406,1.0,1.0,758,lvhc
94,55.0,1.8117449283599851,1.0,0.0,5324.0,112.0,0.462343271131208,0.3496701717376709,1.0,1.0,758,lvhc
95,59.0,2.0623319149017334,1.0,0.0,5383.0,112.0,0.7245101417245225,0.3467228412628173,1.0,1.0,758,lvhc
96,60.0,1.953640937805176,1.0,0.0,5443.0,112.0,0.694935710195717,0.27115488052368164,1.0,1.0,758,lvhc
97,55.0,1.9788758754730225,1.0,0.0,5498.0,112.0,0.7072352190052015,0.2832908630371094,1.0,1.0,758,lvhc
98,63.0,1.8745880126953125,1.0,0.0,5561.0,112.0,0.5653726906737799,0.3178601264953613,1.0,1.0,758,lvhc
99,55.0,1.9689700603485107,1.0,0.0,5616.0,112.0,0.6176638569585857,0.3496189117431641,1.0,1.0,758,lvhc
100,57.0,1.9619801044464111,1.0,0.0,5673.0,112.0,0.6963752393095575,0.2680020332336425,0.0,0.0,758,lvhc
101,57.0,1.832791090011597,1.0,0.0,5730.0,112.0,0.5293846527067138,0.3160390853881836,0.0,0.0,758,lvhc
102,59.0,1.8259699344635008,1.0,0.0,5789.0,112.0,0.5720696584881084,0.2728281021118164,1.0,1.0,758,lvhc
103,40.0,1.881489992141724,0.0,0.0,5829.0,112.0,0.6036282311749042,0.28651404380798334,1.0,0.0,758,lvhc
104,56.0,1.961494207382202,1.0,0.0,5885.0,112.0,0.6485041868557239,0.32644891738891596,1.0,1.0,758,lvhc
105,53.0,1.6843619346618652,1.0,0.0,5938.0,112.0,0.41653387582182966,0.2784080505371094,1.0,1.0,758,lvhc
106,54.0,1.6551921367645264,1.0,0.0,5992.0,112.0,0.3218859836768704,0.3404350280761719,0.0,0.0,758,lvhc
107,57.0,1.6661720275878906,1.0,0.0,6049.0,112.0,0.371429493437637,0.30357289314270014,0.0,0.0,758,lvhc
108,51.0,1.926121950149536,1.0,0.0,6100.0,112.0,0.6639863253444577,0.26588892936706543,0.0,0.0,758,lvhc
109,55.0,1.746683120727539,1.0,0.0,6155.0,112.0,0.4776346581564807,0.2863450050354004,0.0,0.0,758,lvhc
110,60.0,1.8514640331268313,1.0,0.0,6215.0,112.0,0.6123591945760554,0.24540805816650396,0.0,0.0,758,lvhc
111,55.0,1.8185009956359863,1.0,0.0,6270.0,112.0,0.5809659419930533,0.2494969367980957,0.0,0.0,758,lvhc
112,39.0,1.643889904022217,0.0,1.0,6309.0,111.0,0.4084549471458713,0.255810022354126,1.0,0.0,758,lvhc
113,53.0,1.9798049926757808,1.0,0.0,6362.0,111.0,0.7046711296702428,0.28687906265258784,1.0,1.0,758,lvhc
114,62.0,2.0361390113830566,1.0,0.0,6424.0,111.0,0.707547641721062,0.33271908760070795,1.0,1.0,758,lvhc
115,64.0,1.9747211933135984,1.0,0.0,6488.0,111.0,0.7323454959297677,0.25227904319763184,1.0,1.0,758,lvhc
116,63.0,1.9859609603881836,1.0,0.0,6551.0,111.0,0.5352647514176283,0.448038101196289,1.0,1.0,758,lvhc
117,60.0,1.909509897232056,1.0,0.0,6611.0,111.0,0.6613992013353276,0.257802963256836,1.0,1.0,758,lvhc
118,55.0,1.6925821304321287,1.0,0.0,6666.0,111.0,0.3377581722766343,0.3758120536804199,0.0,0.0,758,lvhc
119,56.0,1.7670600414276123,1.0,0.0,6722.0,111.0,0.4547765480510053,0.2948570251464844,0.0,0.0,758,lvhc
120,53.0,1.7554409503936768,1.0,0.0,6775.0,111.0,0.4769281472336944,0.28729200363159174,1.0,1.0,758,lvhc
121,63.0,1.8556239604949951,1.0,0.0,6838.0,111.0,0.5825300353651739,0.2864270210266113,0.0,0.0,758,lvhc
122,65.0,1.9618608951568604,1.0,0.0,6903.0,111.0,0.6943789610451937,0.2708280086517334,0.0,0.0,758,lvhc
123,62.0,1.6565840244293213,1.0,0.0,6965.0,111.0,0.4179988606391015,0.2538900375366211,1.0,1.0,758,lvhc
124,67.0,1.9954540729522705,1.0,0.0,7032.0,111.0,0.7132326566393029,0.2914159297943115,1.0,1.0,758,lvhc
125,60.0,1.9306938648223877,1.0,0.0,7092.0,111.0,0.6440654367403807,0.30501294136047363,1.0,1.0,758,lvhc
126,57.0,1.8871769905090328,1.0,0.0,7149.0,111.0,0.5980426813953073,0.30272603034973145,0.0,0.0,758,lvhc
127,61.0,1.81363320350647,1.0,0.0,7210.0,111.0,0.5284732018401596,0.3114938735961914,1.0,1.0,758,lvhc
128,55.0,1.638381004333496,1.0,0.0,7265.0,111.0,0.3338049012347433,0.3218231201171875,1.0,1.0,758,lvhc
129,63.0,1.7383079528808592,1.0,0.0,7328.0,111.0,0.40543154085200644,0.33788609504699707,1.0,1.0,758,lvhc
130,62.0,1.5527949333190914,1.0,0.0,7390.0,111.0,0.30837818821355084,0.26065707206726074,1.0,1.0,758,lvhc
131,65.0,1.7727169990539549,1.0,0.0,7455.0,111.0,0.4810302040520723,0.2986438274383545,0.0,0.0,758,lvhc
132,55.0,1.9002258777618408,1.0,0.0,7510.0,111.0,0.5645786613915704,0.3460969924926758,0.0,0.0,758,lvhc
133,60.0,1.7427239418029785,1.0,0.0,7570.0,111.0,0.5407140847948375,0.2181339263916016,0.0,0.0,758,lvhc
134,57.0,1.7802648544311523,1.0,0.0,7627.0,111.0,0.5544153286066424,0.23719286918640134,0.0,0.0,758,lvhc
135,36.0,1.510056972503662,0.0,0.0,7663.0,111.0,0.2814833883810134,0.2279489040374756,1.0,0.0,758,lvhc
136,56.0,1.5877981185913086,1.0,0.0,7719.0,111.0,0.3359427841295828,0.2738978862762451,0.0,0.0,758,lvhc
137,60.0,1.93335485458374,1.0,0.0,7779.0,111.0,0.652372790908341,0.291064977645874,0.0,0.0,758,lvhc
138,56.0,1.8520081043243408,1.0,0.0,7835.0,111.0,0.5545812071327996,0.3028111457824707,1.0,1.0,758,lvhc
139,55.0,1.9030699729919436,1.0,0.0,7890.0,111.0,0.6243322920769295,0.293834924697876,1.0,1.0,758,lvhc
140,65.0,1.9502089023590088,1.0,0.0,7955.0,111.0,0.6745843132973581,0.2789139747619629,0.0,0.0,758,lvhc
141,59.0,1.9167890548706052,1.0,0.0,8014.0,111.0,0.6248170375229284,0.3069961071014404,1.0,1.0,758,lvhc
142,59.0,2.0775718688964844,1.0,0.0,8073.0,111.0,0.6025234681000535,0.4873571395874024,0.0,0.0,758,lvhc
143,62.0,1.6402652263641355,1.0,0.0,8135.0,111.0,0.37642386731403354,0.27430701255798334,0.0,0.0,758,lvhc
144,57.0,1.8196699619293208,1.0,0.0,8192.0,111.0,0.5460052956030906,0.2798290252685547,0.0,0.0,758,lvhc
145,57.0,2.0539638996124268,1.0,0.0,8249.0,111.0,0.7331968859013624,0.3291969299316406,1.0,1.0,758,lvhc
146,61.0,1.7316958904266355,1.0,0.0,8310.0,111.0,0.4818923860534574,0.24966692924499514,1.0,1.0,758,lvhc
147,61.0,1.9979159832000728,1.0,0.0,8371.0,111.0,0.7129817497012576,0.29707193374633784,0.0,0.0,758,lvhc
148,59.0,1.700993061065674,1.0,0.0,8430.0,111.0,0.41437338239564636,0.3111391067504882,0.0,0.0,758,lvhc
149,59.0,1.6859259605407717,1.0,0.0,8489.0,111.0,0.3670940920268548,0.3421480655670166,1.0,1.0,758,lvhc
150,61.0,1.5802769660949707,1.0,0.0,8550.0,111.0,0.31417750684509443,0.27622294425964355,0.0,0.0,758,lvhc
151,57.0,1.8834130764007568,1.0,0.0,8607.0,111.0,0.5973708741465384,0.3045170307159424,1.0,1.0,758,lvhc
152,66.0,1.99993896484375,1.0,0.0,8673.0,111.0,0.7139275033656987,0.3063681125640869,1.0,1.0,758,lvhc
153,62.0,1.6054229736328125,1.0,0.0,8735.0,111.0,0.3198356981526277,0.2966861724853516,0.0,0.0,758,lvhc
154,57.0,1.7406508922576902,1.0,0.0,8792.0,111.0,0.3938463972541712,0.3468141555786132,1.0,1.0,758,lvhc
155,57.0,1.6945970058441162,1.0,0.0,8849.0,111.0,0.3885079019480732,0.3135669231414795,1.0,1.0,758,lvhc
156,68.0,1.8044888973236084,1.0,0.0,8917.0,111.0,0.4929859838249335,0.31855106353759766,0.0,0.0,758,lvhc
157,55.0,1.7807600498199463,1.0,0.0,8972.0,111.0,0.4904738769736964,0.3056609630584717,0.0,0.0,758,lvhc
158,61.0,1.8620278835296635,1.0,0.0,9033.0,111.0,0.6024548699982099,0.27339291572570795,0.0,0.0,758,lvhc
159,57.0,1.9778690338134763,1.0,0.0,9090.0,111.0,0.6636882553570045,0.31382584571838373,1.0,1.0,758,lvhc
160,62.0,1.531829833984375,1.0,0.0,9152.0,111.0,0.2960027413731158,0.25817084312438965,1.0,1.0,758,lvhc
161,64.0,1.8000359535217283,1.0,0.0,9216.0,111.0,0.41266625952751773,0.39896416664123535,1.0,1.0,758,lvhc
162,65.0,1.7919950485229492,1.0,0.0,9281.0,111.0,0.504624491430622,0.3109250068664551,1.0,1.0,758,lvhc
163,63.0,1.9228520393371584,1.0,0.0,9344.0,111.0,0.4276513253328576,0.5020859241485597,1.0,1.0,758,lvhc
164,64.0,1.990782022476196,1.0,0.0,9408.0,111.0,0.6349897218274085,0.3624498844146729,0.0,0.0,758,lvhc
165,61.0,1.99514102935791,1.0,0.0,9469.0,111.0,0.7301306244176609,0.2655138969421387,0.0,0.0,758,lvhc
166,61.0,1.634998083114624,1.0,0.0,9530.0,111.0,0.3655922633674544,0.27921390533447266,0.0,0.0,758,lvhc
167,59.0,2.2510919570922847,1.0,0.0,9589.0,111.0,0.7164053315179693,0.5293188095092773,1.0,1.0,758,lvhc
168,59.0,1.8625500202178955,1.0,0.0,9648.0,111.0,0.5291984991957654,0.33336710929870605,0.0,0.0,758,lvhc
169,63.0,1.5789940357208254,1.0,0.0,9711.0,111.0,0.34178057635153924,0.2564260959625244,0.0,0.0,758,lvhc
170,60.0,1.7487020492553709,1.0,0.0,9771.0,111.0,0.4071918242367419,0.35513901710510254,0.0,0.0,758,lvhc
171,56.0,1.9199779033660889,1.0,0.0,9827.0,111.0,0.6769089202986737,0.24923801422119135,0.0,0.0,758,lvhc
172,63.0,1.8318941593170173,1.0,0.0,9890.0,111.0,0.6089869891265478,0.23859214782714844,0.0,0.0,758,lvhc
173,55.0,2.0497009754180913,1.0,0.0,9945.0,111.0,0.7086927425444005,0.35135912895202637,1.0,1.0,758,lvhc
174,56.0,1.980164051055908,1.0,0.0,10001.0,111.0,0.7056008070904918,0.2784550189971924,1.0,1.0,758,lvhc
175,68.0,1.7667179107666018,1.0,0.0,10069.0,111.0,0.4560252840510893,0.3101990222930908,1.0,1.0,758,lvhc
176,59.0,1.6701140403747559,1.0,0.0,10128.0,111.0,0.37629584907965463,0.3055579662322998,1.0,1.0,758,lvhc
177,59.0,1.856970071792602,1.0,0.0,10187.0,111.0,0.5661822030774488,0.2959170341491699,1.0,1.0,758,lvhc
178,56.0,1.567564010620117,1.0,0.0,10243.0,111.0,0.2677575738242083,0.3063719272613525,0.0,0.0,758,lvhc
179,62.0,1.8239350318908687,1.0,0.0,10305.0,111.0,0.441577607272704,0.39275693893432617,1.0,1.0,758,lvhc
180,62.0,1.6392760276794431,1.0,0.0,10367.0,111.0,0.36441185517655866,0.28314089775085444,0.0,0.0,758,lvhc
181,60.0,1.571368932723999,1.0,0.0,10427.0,111.0,0.335826845472225,0.24584102630615234,1.0,1.0,758,lvhc
182,59.0,1.5772302150726318,1.0,0.0,10486.0,111.0,0.31314360280975045,0.27159786224365234,0.0,0.0,758,lvhc
183,60.0,1.8272509574890137,1.0,0.0,10546.0,111.0,0.5735125976292812,0.2699611186981201,1.0,1.0,758,lvhc
184,52.0,1.5419950485229492,1.0,0.0,10598.0,111.0,0.282590986220576,0.26070690155029297,0.0,0.0,758,lvhc
185,60.0,2.025903940200806,1.0,0.0,10658.0,111.0,0.6082214744173108,0.4237592220306397,0.0,0.0,758,lvhc
186,63.0,1.94097900390625,1.0,0.0,10721.0,111.0,0.682512769168174,0.27513694763183594,0.0,0.0,758,lvhc
187,70.0,1.8077409267425537,1.0,0.0,10791.0,111.0,0.5405070767744545,0.2632279396057129,0.0,0.0,758,lvhc
188,50.0,1.8823909759521484,1.0,0.0,10841.0,111.0,0.6062306048654121,0.2893180847167969,1.0,1.0,758,lvhc
189,52.0,1.6117138862609863,1.0,0.0,10893.0,111.0,0.3682898440326459,0.2610039710998535,0.0,0.0,758,lvhc
190,56.0,1.92617917060852,1.0,0.0,10949.0,111.0,0.6608826985589733,0.2724227905273437,1.0,1.0,758,lvhc
191,56.0,2.0856249332427974,1.0,0.0,11005.0,111.0,0.7465277433340534,0.35483121871948237,1.0,1.0,758,lvhc
192,61.0,1.814850091934204,1.0,0.0,11066.0,111.0,0.4950624664954907,0.3325247764587402,0.0,0.0,758,lvhc
193,62.0,1.807378053665161,1.0,0.0,11128.0,111.0,0.5524878506522469,0.2679481506347656,0.0,0.0,758,lvhc
194,55.0,1.743346929550171,1.0,0.0,11183.0,111.0,0.4626665531387184,0.289391040802002,1.0,1.0,758,lvhc
195,59.0,1.9475779533386235,1.0,0.0,11242.0,111.0,0.693443015907929,0.27304887771606445,1.0,1.0,758,lvhc
196,59.0,1.820566177368164,1.0,0.0,11301.0,111.0,0.5974742423165929,0.24414300918579104,0.0,0.0,758,lvhc
197,63.0,1.9392218589782717,1.0,0.0,11364.0,111.0,0.6201083407447452,0.3355209827423096,1.0,1.0,758,lvhc
198,61.0,1.8903770446777344,1.0,0.0,11425.0,111.0,0.5606415928326137,0.3356149196624756,1.0,1.0,758,lvhc
199,56.0,1.8879280090332031,1.0,0.0,11481.0,111.0,0.631873950247291,0.27530503273010254,1.0,1.0,758,lvhc
200,56.0,1.7910401821136475,1.0,0.0,11537.0,111.0,0.4898585269028594,0.2953829765319824,1.0,1.0,758,lvhc
201,59.0,1.7775409221649168,1.0,0.0,11596.0,111.0,0.5174252219711408,0.2781529426574707,0.0,0.0,758,lvhc
202,62.0,1.517971038818359,1.0,0.0,11658.0,111.0,0.2690798713785614,0.253835916519165,0.0,0.0,758,lvhc
203,59.0,1.759890079498291,1.0,0.0,11717.0,111.0,0.4621663483730876,0.3082549571990967,0.0,0.0,758,lvhc
204,56.0,1.7204270362854004,1.0,0.0,11773.0,111.0,0.4659953143413797,0.2642948627471924,0.0,0.0,758,lvhc
205,64.0,1.500253915786743,1.0,0.0,11837.0,111.0,0.2665297487768734,0.24002885818481445,0.0,0.0,758,lvhc
206,63.0,1.79797101020813,1.0,0.0,11900.0,111.0,0.4477246074492061,0.3600828647613525,1.0,1.0,758,lvhc
207,62.0,1.7834160327911377,1.0,0.0,11962.0,111.0,0.547778768593394,0.2548608779907226,0.0,0.0,758,lvhc
208,59.0,1.840726852416992,1.0,0.0,12021.0,111.0,0.5885539104560507,0.2765669822692871,0.0,0.0,758,lvhc
209,54.0,1.5950140953063965,1.0,0.0,12075.0,111.0,0.3505465200117726,0.2576730251312256,0.0,0.0,758,lvhc
210,60.0,1.6056509017944336,1.0,0.0,12135.0,111.0,0.3729209586291548,0.23372387886047366,0.0,0.0,758,lvhc
211,38.0,1.6934010982513428,0.0,0.0,12173.0,111.0,0.4663150468591103,0.23570799827575686,1.0,0.0,758,lvhc
212,61.0,1.6826150417327879,1.0,0.0,12234.0,111.0,0.4156980350447497,0.26378703117370605,0.0,0.0,758,lvhc
213,61.0,1.981446981430054,1.0,0.0,12295.0,111.0,0.6969351546039995,0.279498815536499,0.0,0.0,758,lvhc
214,55.0,1.8478629589080808,1.0,0.0,12350.0,111.0,0.5617229635323496,0.30190706253051763,1.0,1.0,758,lvhc
215,63.0,1.801170825958252,1.0,0.0,12413.0,111.0,0.4963527007552472,0.3259851932525635,1.0,1.0,758,lvhc
216,55.0,1.8870928287506104,1.0,0.0,12468.0,111.0,0.6333754350525903,0.2730278968811035,0.0,0.0,758,lvhc
217,61.0,2.0179882049560542,1.0,0.0,12529.0,111.0,0.7013805955985746,0.3190741539001465,0.0,0.0,758,lvhc
218,45.0,1.746626853942871,0.0,1.0,12574.0,112.0,0.4650346959164929,0.2925519943237305,0.0,1.0,758,lvhc
219,46.0,1.6517801284790041,0.0,0.0,12620.0,112.0,0.3669755249834002,0.2992401123046875,1.0,0.0,758,lvhc
220,44.0,1.89802885055542,0.0,0.0,12664.0,112.0,0.5982026538327496,0.3036820888519287,0.0,1.0,758,lvhc
221,44.0,1.5665161609649658,0.0,0.0,12708.0,112.0,0.28174487767764544,0.3013300895690918,0.0,1.0,758,lvhc
222,41.0,1.7562479972839358,0.0,0.0,12749.0,112.0,0.4712149984417356,0.2977550029754638,0.0,1.0,758,lvhc
223,47.0,2.0157968997955322,0.0,0.0,12796.0,112.0,0.7201649962566052,0.3021237850189209,1.0,0.0,758,lvhc
224,50.0,1.7188730239868162,0.0,0.0,12846.0,112.0,0.4061397194775225,0.32056593894958496,0.0,1.0,758,lvhc
225,47.0,2.0224809646606445,0.0,0.0,12893.0,112.0,0.711727525151449,0.32096314430236816,0.0,1.0,758,lvhc
226,48.0,1.838552951812744,0.0,0.0,12941.0,112.0,0.5505178264870054,0.3053131103515625,0.0,1.0,758,lvhc
227,56.0,1.7614798545837402,1.0,0.0,12997.0,112.0,0.3456331996547717,0.4223728179931641,0.0,0.0,758,lvhc
228,60.0,1.9979019165039065,1.0,0.0,13057.0,112.0,0.7265545977548237,0.2804229259490966,1.0,1.0,758,lvhc
229,51.0,2.004491090774536,1.0,0.0,13108.0,112.0,0.7311045459651384,0.2864899635314941,1.0,1.0,758,lvhc
230,56.0,1.8376100063323972,1.0,0.0,13164.0,112.0,0.5190578929255448,0.3355908393859863,1.0,1.0,758,lvhc
231,52.0,1.6751768589019775,1.0,0.0,13216.0,112.0,0.3944052234146829,0.2827320098876953,0.0,0.0,758,lvhc
232,52.0,1.5251281261444094,1.0,0.0,13268.0,112.0,0.2531147648352912,0.2940878868103028,0.0,0.0,758,lvhc
233,57.0,1.7217750549316406,1.0,0.0,13325.0,112.0,0.3748277740907778,0.35075998306274414,1.0,1.0,758,lvhc
234,52.0,1.7966010570526125,1.0,0.0,13377.0,112.0,0.4880504211384767,0.314220905303955,1.0,1.0,758,lvhc
235,55.0,1.5370240211486819,1.0,0.0,13432.0,112.0,0.2587362418969727,0.27921509742736816,0.0,0.0,758,lvhc
236,56.0,1.744617938995361,1.0,0.0,13488.0,112.0,0.4532081034471973,0.3009178638458252,0.0,0.0,758,lvhc
237,53.0,1.5573551654815672,1.0,0.0,13541.0,112.0,0.2774960579719449,0.28398799896240234,0.0,0.0,758,lvhc
238,53.0,1.7151188850402832,1.0,0.0,13594.0,112.0,0.4591366853900525,0.27506113052368164,0.0,0.0,758,lvhc
239,48.0,1.5027780532836916,0.0,0.0,13642.0,112.0,0.2788818043786106,0.23744297027587885,1.0,0.0,758,lvhc
240,52.0,1.8567399978637693,1.0,0.0,13694.0,112.0,0.5687238541423532,0.30451512336730957,1.0,1.0,758,lvhc
241,50.0,1.973249912261963,1.0,0.0,13744.0,112.0,0.7085610859667273,0.2768988609313965,1.0,1.0,758,lvhc
242,57.0,1.5967071056365965,1.0,0.0,13801.0,112.0,0.30579074292048253,0.30335497856140137,1.0,1.0,758,lvhc
243,57.0,1.7386929988861084,1.0,0.0,13858.0,112.0,0.444389421423104,0.30834889411926264,0.0,0.0,758,lvhc
244,56.0,1.831286191940308,1.0,0.0,13914.0,112.0,0.5589694023331171,0.2920629978179932,0.0,0.0,758,lvhc
245,51.0,1.8219649791717527,1.0,0.0,13965.0,112.0,0.4977538498193312,0.3318121433258057,0.0,0.0,758,lvhc
246,51.0,2.0366129875183105,1.0,0.0,14016.0,112.0,0.7009008898553901,0.3472151756286621,1.0,1.0,758,lvhc
247,53.0,1.6881101131439207,1.0,0.0,14069.0,112.0,0.3727830595501827,0.31329894065856934,1.0,1.0,758,lvhc
248,55.0,1.6936249732971191,1.0,0.0,14124.0,112.0,0.39982372988318854,0.3020050525665283,0.0,0.0,758,lvhc
249,56.0,1.758186101913452,1.0,0.0,14180.0,112.0,0.3914059306343808,0.37607479095458973,0.0,0.0,758,lvhc
250,56.0,1.6740598678588865,1.0,0.0,14236.0,112.0,0.3489218471232509,0.3371508121490478,1.0,1.0,758,lvhc
251,51.0,1.8492519855499268,1.0,0.0,14287.0,112.0,0.5313977616200941,0.32487416267395014,1.0,1.0,758,lvhc
252,52.0,1.9114840030670168,1.0,0.0,14339.0,112.0,0.6261850250847021,0.3035709857940673,1.0,1.0,758,lvhc
253,53.0,1.665462017059326,1.0,0.0,14392.0,112.0,0.40862125701520247,0.2779569625854492,0.0,0.0,758,lvhc
254,51.0,1.882080078125,1.0,0.0,14443.0,112.0,0.5739326020332631,0.3153579235076904,1.0,1.0,758,lvhc
255,54.0,2.039175987243653,1.0,0.0,14497.0,112.0,0.74637242985701,0.3011419773101806,0.0,0.0,758,lvhc
256,57.0,1.6026461124420168,1.0,0.0,14554.0,112.0,0.3328611041442181,0.2858779430389404,1.0,1.0,758,lvhc
257,51.0,1.9083309173583984,1.0,0.0,14605.0,112.0,0.5743377672409085,0.34123086929321284,0.0,0.0,758,lvhc
258,59.0,1.8231358528137211,1.0,0.0,14664.0,112.0,0.5475936054055761,0.2830030918121338,1.0,1.0,758,lvhc
259,57.0,1.7442660331726074,1.0,0.0,14721.0,112.0,0.4253848753090768,0.3356881141662598,1.0,1.0,758,lvhc
260,54.0,1.9660449028015137,1.0,0.0,14775.0,112.0,0.6412777582295461,0.32774901390075684,0.0,0.0,758,lvhc
261,56.0,1.7935760021209717,1.0,0.0,14831.0,112.0,0.5017773490836381,0.30114006996154785,1.0,1.0,758,lvhc
262,54.0,1.6602239608764646,1.0,0.0,14885.0,112.0,0.3455690663520661,0.32120585441589355,0.0,0.0,758,lvhc
263,55.0,1.6705060005187988,1.0,0.0,14940.0,112.0,0.2828966964070172,0.3962669372558594,0.0,0.0,758,lvhc
264,52.0,1.687368154525757,1.0,0.0,14992.0,112.0,0.4035336786699036,0.2849769592285156,1.0,1.0,758,lvhc
265,50.0,2.0303969383239746,1.0,0.0,15042.0,112.0,0.7003520921977499,0.33480191230773926,0.0,0.0,758,lvhc
266,57.0,1.9022979736328125,1.0,0.0,15099.0,112.0,0.6194911098475153,0.2884531021118164,1.0,1.0,758,lvhc
267,53.0,1.5906300544738767,1.0,0.0,15152.0,112.0,0.31053743836450254,0.2925369739532471,1.0,1.0,758,lvhc
268,55.0,1.9403791427612305,1.0,0.0,15207.0,112.0,0.6506500858896977,0.3012509346008301,0.0,0.0,758,lvhc
269,55.0,1.7124059200286863,1.0,0.0,15262.0,112.0,0.4633254831183051,0.25936102867126465,1.0,1.0,758,lvhc
270,56.0,2.0239148139953613,1.0,0.0,15318.0,112.0,0.7369866012619625,0.3004570007324219,0.0,0.0,758,lvhc
271,52.0,1.6908578872680666,1.0,0.0,15370.0,112.0,0.39498892533256313,0.29609584808349604,0.0,0.0,758,lvhc
272,50.0,1.938606023788452,1.0,0.0,15420.0,112.0,0.6334473848962877,0.3158650398254394,0.0,0.0,758,lvhc
273,48.0,2.225170135498047,0.0,0.0,15468.0,112.0,0.6753239486200466,0.5449001789093018,1.0,0.0,758,lvhc
274,52.0,1.8996169567108157,1.0,0.0,15520.0,112.0,0.625097985748134,0.2842998504638672,0.0,0.0,758,lvhc
275,60.0,1.7881190776824953,1.0,0.0,15580.0,112.0,0.513408934669049,0.2783808708190918,0.0,0.0,758,lvhc
276,54.0,1.815989017486572,1.0,0.0,15634.0,112.0,0.5627603086159731,0.2630970478057861,1.0,1.0,758,lvhc
277,55.0,1.79823899269104,1.0,0.0,15689.0,112.0,0.5444458098643672,0.265470027923584,0.0,0.0,758,lvhc
278,52.0,1.6768410205841062,1.0,0.0,15741.0,112.0,0.42145678443792545,0.27467107772827143,0.0,0.0,758,lvhc
279,52.0,1.7227940559387207,1.0,0.0,15793.0,112.0,0.4942605850208074,0.24030995368957525,0.0,0.0,758,lvhc
280,53.0,1.9264540672302248,1.0,0.0,15846.0,112.0,0.6872862475955712,0.2606949806213379,1.0,1.0,758,lvhc
281,60.0,1.6400458812713625,1.0,0.0,15906.0,112.0,0.37772884324423334,0.2734129428863525,0.0,0.0,758,lvhc
282,55.0,2.1380128860473633,1.0,0.0,15961.0,112.0,0.6988244695608028,0.4441800117492676,1.0,1.0,758,lvhc
283,54.0,1.5732641220092771,1.0,0.0,16015.0,112.0,0.2892528062178085,0.2882180213928222,0.0,0.0,758,lvhc
284,52.0,1.8888738155364992,1.0,0.0,16067.0,112.0,0.6111939658664888,0.29058003425598145,1.0,1.0,758,lvhc
285,52.0,1.8086948394775393,1.0,0.0,16119.0,112.0,0.5367063450993074,0.2883470058441162,0.0,0.0,758,lvhc
286,50.0,2.0114700794219966,1.0,0.0,16169.0,112.0,0.714775516003269,0.2957191467285156,1.0,1.0,758,lvhc
287,54.0,1.7447209358215332,1.0,0.0,16223.0,112.0,0.37657455790894234,0.3768069744110107,0.0,0.0,758,lvhc
288,57.0,2.011789798736572,1.0,0.0,16280.0,112.0,0.7214393491119117,0.2988889217376709,1.0,1.0,758,lvhc
289,50.0,1.8334748744964604,1.0,0.0,16330.0,112.0,0.5552009360416001,0.28930687904357916,0.0,0.0,758,lvhc
290,53.0,1.7451109886169434,1.0,0.0,16383.0,112.0,0.4504736241584564,0.3030049800872803,0.0,0.0,758,lvhc
291,56.0,1.536590099334717,1.0,0.0,16439.0,112.0,0.27065666126062227,0.2760629653930664,1.0,1.0,758,lvhc
292,52.0,1.8167159557342527,1.0,0.0,16491.0,112.0,0.35406697512313,0.4617769718170166,0.0,0.0,758,lvhc
293,54.0,1.6941108703613281,1.0,0.0,16545.0,112.0,0.3815238082314186,0.3221750259399414,0.0,0.0,758,lvhc
294,52.0,2.212239980697632,1.0,0.0,16597.0,112.0,0.5769978216722967,0.649911880493164,0.0,0.0,758,lvhc
295,53.0,1.5305750370025637,1.0,0.0,16650.0,112.0,0.29127197015649275,0.2602992057800293,0.0,0.0,758,lvhc
296,52.0,1.83898401260376,1.0,0.0,16702.0,112.0,0.6965604907722647,0.15174317359924316,0.0,0.0,758,lvhc
297,59.0,1.998064994812012,1.0,0.0,16761.0,112.0,0.6947286626369533,0.318734884262085,0.0,0.0,758,lvhc
298,59.0,1.9969558715820312,1.0,0.0,16820.0,112.0,0.6085134092133462,0.4098508358001709,0.0,0.0,758,lvhc
299,52.0,1.9189710617065423,1.0,0.0,16872.0,112.0,0.5609590913673481,0.37290287017822266,1.0,1.0,758,lvhc
300,57.0,2.3029370307922363,1.0,0.0,16929.0,112.0,0.6472604120223135,0.6643221378326415,0.0,0.0,758,lvhc
301,51.0,2.137842893600464,1.0,0.0,16980.0,112.0,0.7350760757271191,0.41240406036376953,1.0,1.0,758,lvhc
302,55.0,2.077371835708618,1.0,0.0,17035.0,112.0,0.6792710457704175,0.4074621200561523,1.0,1.0,758,lvhc
303,53.0,1.7473201751708984,1.0,0.0,17088.0,112.0,0.4769145340903376,0.27990603446960444,0.0,0.0,758,lvhc
304,50.0,1.531812906265259,1.0,0.0,17138.0,112.0,0.25902744943476436,0.2789299488067627,1.0,1.0,758,lvhc
305,50.0,1.8479549884796145,1.0,0.0,17188.0,112.0,0.5400944575467327,0.31865596771240234,0.0,0.0,758,lvhc
306,55.0,1.6729362010955813,1.0,0.0,17243.0,112.0,0.3799314022430541,0.30370903015136713,0.0,0.0,758,lvhc
307,50.0,1.5616979598999023,1.0,0.0,17293.0,112.0,0.3084619315871661,0.2670919895172119,0.0,0.0,758,lvhc
308,56.0,1.796696901321411,1.0,0.0,17349.0,112.0,0.4883776383235299,0.31749105453491205,1.0,1.0,758,lvhc
309,51.0,1.5319359302520752,1.0,0.0,17400.0,112.0,0.28723719581664275,0.2465109825134277,0.0,0.0,758,lvhc
310,52.0,1.766124963760376,1.0,0.0,17452.0,112.0,0.5032384396784901,0.2682859897613525,0.0,0.0,758,lvhc
311,52.0,1.8287479877471924,1.0,0.0,17504.0,112.0,0.6152843568027041,0.22664594650268555,0.0,0.0,758,lvhc
312,55.0,1.8987329006195068,1.0,0.0,17559.0,112.0,0.5974640059955199,0.2973980903625488,0.0,0.0,758,lvhc
313,57.0,1.9460129737854004,1.0,0.0,17616.0,112.0,0.676798283984265,0.28513908386230463,1.0,1.0,758,lvhc
314,56.0,1.5786480903625488,1.0,0.0,17672.0,112.0,0.3392050761802343,0.2571351528167725,0.0,0.0,758,lvhc
315,52.0,1.7895231246948244,1.0,0.0,17724.0,112.0,0.5286070594938423,0.2699170112609863,1.0,1.0,758,lvhc
316,52.0,1.688446044921875,1.0,0.0,17776.0,112.0,0.4338886392325443,0.2687098979949952,0.0,0.0,758,lvhc
317,43.0,1.9919960498809808,0.0,1.0,17819.0,111.0,0.6923822603228256,0.30470108985900873,0.0,1.0,758,lvhc
318,63.0,1.7770369052886963,1.0,0.0,17882.0,111.0,0.4697480813757999,0.3264598846435547,1.0,1.0,758,lvhc
319,57.0,1.4986240863800049,1.0,0.0,17939.0,111.0,0.2519981928196115,0.25215697288513184,0.0,0.0,758,lvhc
320,54.0,1.973083019256592,1.0,0.0,17993.0,111.0,0.6913510178639604,0.2771899700164795,1.0,1.0,758,lvhc
321,57.0,1.7891218662261963,1.0,0.0,18050.0,111.0,0.5307464788697598,0.2776198387145996,1.0,1.0,758,lvhc
322,55.0,2.0662429332733154,1.0,0.0,18105.0,111.0,0.746849085090466,0.3403539657592773,1.0,1.0,758,lvhc
323,57.0,1.611111879348755,1.0,0.0,18162.0,111.0,0.34176659317408964,0.2857558727264404,0.0,0.0,758,lvhc
324,53.0,1.6059820652008059,1.0,0.0,18215.0,111.0,0.381133297423248,0.2281138896942138,1.0,1.0,758,lvhc
325,56.0,1.4658429622650149,1.0,0.0,18271.0,111.0,0.2638419399538867,0.22237801551818848,0.0,0.0,758,lvhc
326,61.0,1.7092151641845703,1.0,0.0,18332.0,111.0,0.439586200222886,0.2886021137237549,1.0,1.0,758,lvhc
327,56.0,1.6829850673675537,1.0,0.0,18388.0,111.0,0.3727281724945074,0.31098103523254395,1.0,1.0,758,lvhc
328,57.0,1.8692698478698728,1.0,0.0,18445.0,111.0,0.6085247899881984,0.2756509780883789,0.0,0.0,758,lvhc
329,59.0,1.533517837524414,1.0,0.0,18504.0,111.0,0.27576794490769346,0.26612186431884766,0.0,0.0,758,lvhc
330,57.0,1.5850288867950437,1.0,0.0,18561.0,111.0,0.2941809762874312,0.3058140277862548,0.0,0.0,758,lvhc
331,63.0,1.8494369983673091,1.0,0.0,18624.0,111.0,0.3935971099178446,0.4675259590148925,0.0,0.0,758,lvhc
332,54.0,1.704293012619018,1.0,0.0,18678.0,111.0,0.3313545261605845,0.3786418437957764,0.0,0.0,758,lvhc
333,60.0,1.9135620594024656,1.0,0.0,18738.0,111.0,0.6446907573759144,0.2866530418395996,0.0,0.0,758,lvhc
334,52.0,1.6533939838409424,1.0,0.0,18790.0,111.0,0.381775067100854,0.28408002853393555,1.0,1.0,758,lvhc
335,57.0,1.9026720523834229,1.0,0.0,18847.0,111.0,0.5177068050199984,0.39415693283081055,1.0,1.0,758,lvhc
336,59.0,1.9356489181518557,1.0,0.0,18906.0,111.0,0.6200167550351247,0.32349300384521484,0.0,0.0,758,lvhc
337,53.0,1.96035099029541,1.0,0.0,18959.0,111.0,0.6139367616903817,0.3572452068328857,1.0,1.0,758,lvhc
338,63.0,1.7331650257110593,1.0,0.0,19022.0,111.0,0.29736999473171694,0.4523189067840576,0.0,0.0,758,lvhc
339,60.0,1.954307079315185,1.0,0.0,19082.0,111.0,0.6680430727680838,0.3030271530151367,0.0,0.0,758,lvhc
340,60.0,2.288411855697632,1.0,0.0,19142.0,111.0,0.7398112694892734,0.5494940280914307,1.0,1.0,758,lvhc
341,59.0,1.5784859657287598,1.0,0.0,19201.0,111.0,0.2855168821795844,0.29723191261291504,1.0,1.0,758,lvhc
342,57.0,1.7490470409393308,1.0,0.0,19258.0,111.0,0.4011976503360882,0.3538851737976074,1.0,1.0,758,lvhc
343,55.0,1.8087840080261233,1.0,0.0,19313.0,111.0,0.5432345061201553,0.2729458808898925,1.0,1.0,758,lvhc
344,56.0,1.5898020267486572,1.0,0.0,19369.0,111.0,0.3832711448241292,0.22202205657958982,1.0,1.0,758,lvhc
345,60.0,1.9922320842742915,1.0,0.0,19429.0,111.0,0.7252399914407485,0.27210211753845215,1.0,1.0,758,lvhc
346,59.0,1.7792458534240723,1.0,0.0,19488.0,111.0,0.5380570261581917,0.2588319778442382,0.0,0.0,758,lvhc
347,56.0,1.8595330715179443,1.0,0.0,19544.0,111.0,0.6309437828937994,0.23263096809387204,1.0,1.0,758,lvhc
348,59.0,1.656430006027222,1.0,0.0,19603.0,111.0,0.43765826031298577,0.2306051254272461,1.0,1.0,758,lvhc
349,60.0,1.886137008666992,1.0,0.0,19663.0,111.0,0.5737287912719341,0.3240189552307129,1.0,1.0,758,lvhc
350,57.0,2.010531187057495,1.0,0.0,19720.0,111.0,0.6842408409495122,0.333751916885376,0.0,0.0,758,lvhc
351,56.0,1.7412779331207275,1.0,0.0,19776.0,111.0,0.4258841360258044,0.3150498867034912,0.0,0.0,758,lvhc
352,57.0,1.5638499259948728,1.0,0.0,19833.0,111.0,0.2732778565148028,0.3018860816955566,1.0,1.0,758,lvhc
353,56.0,2.059128999710083,1.0,0.0,19889.0,111.0,0.7153494309886426,0.34815287590026855,1.0,1.0,758,lvhc
354,61.0,2.007471799850464,1.0,0.0,19950.0,111.0,0.6896021221308333,0.3166470527648925,1.0,1.0,758,lvhc
355,62.0,2.025763988494873,1.0,0.0,20012.0,111.0,0.7157613988991828,0.3166749477386474,1.0,1.0,758,lvhc
356,55.0,1.984912157058716,1.0,0.0,20067.0,111.0,0.6505471828075016,0.3356010913848877,0.0,0.0,758,lvhc
357,55.0,2.006192922592163,1.0,0.0,20122.0,111.0,0.7234615838441185,0.2862508296966553,1.0,1.0,758,lvhc
358,56.0,2.220016002655029,1.0,0.0,20178.0,111.0,0.4771363449852672,0.7483201026916504,0.0,0.0,758,lvhc
359,55.0,1.5305500030517578,1.0,0.0,20233.0,111.0,0.29127342208317786,0.245729923248291,0.0,0.0,758,lvhc
360,57.0,1.872925043106079,1.0,0.0,20290.0,111.0,0.5473657356424044,0.34142088890075684,0.0,0.0,758,lvhc
361,60.0,1.992992162704468,1.0,0.0,20350.0,111.0,0.6569562264562349,0.35478711128234863,0.0,0.0,758,lvhc
362,64.0,1.6738998889923098,1.0,0.0,20414.0,111.0,0.4145368505799538,0.26396822929382324,0.0,0.0,758,lvhc
363,56.0,2.0899050235748287,1.0,0.0,20470.0,111.0,0.7208695256645221,0.38822984695434565,1.0,1.0,758,lvhc
364,54.0,1.6822679042816164,1.0,0.0,20524.0,111.0,0.3869179751755776,0.3074359893798828,1.0,1.0,758,lvhc
365,56.0,1.840754985809326,1.0,0.0,20580.0,111.0,0.3944088754969527,0.4590189456939697,0.0,0.0,758,lvhc
366,60.0,2.0001211166381836,1.0,0.0,20640.0,111.0,0.6776433423199667,0.3348679542541504,1.0,1.0,758,lvhc
367,57.0,1.861703872680664,1.0,0.0,20697.0,111.0,0.5562381241090922,0.31298780441284174,1.0,1.0,758,lvhc
368,53.0,1.6320879459381104,1.0,0.0,20750.0,111.0,0.28867441524441395,0.3572869300842285,1.0,1.0,758,lvhc
369,57.0,1.6679210662841795,1.0,0.0,20807.0,111.0,0.3399201280008933,0.3360121250152588,1.0,1.0,758,lvhc
370,52.0,1.8146109580993648,1.0,0.0,20859.0,111.0,0.5211012557640193,0.2954621315002441,0.0,0.0,758,lvhc
371,55.0,1.9537758827209473,1.0,0.0,20914.0,111.0,0.7081228381208684,0.25480413436889643,1.0,1.0,758,lvhc
372,60.0,1.832894086837768,1.0,0.0,20974.0,111.0,0.5745781165084984,0.27280592918396,0.0,0.0,758,lvhc
373,60.0,1.6713891029357912,1.0,0.0,21034.0,111.0,0.4461613854481337,0.2376530170440674,1.0,1.0,758,lvhc
374,62.0,1.8649840354919436,1.0,0.0,21096.0,111.0,0.5944420101244874,0.2940280437469482,1.0,1.0,758,lvhc
375,60.0,1.9642019271850584,1.0,0.0,21156.0,111.0,0.7086327271712216,0.2614271640777588,0.0,0.0,758,lvhc
376,53.0,2.0518038272857666,1.0,0.0,21209.0,111.0,0.6938435353704908,0.37677693367004406,0.0,0.0,758,lvhc
377,56.0,1.8315541744232176,1.0,0.0,21265.0,111.0,0.6089003790942111,0.2357950210571289,0.0,0.0,758,lvhc
378,60.0,1.5819878578186035,1.0,0.0,21325.0,111.0,0.34124090145387154,0.2535350322723389,1.0,1.0,758,lvhc
379,61.0,2.055185079574585,1.0,0.0,21386.0,111.0,0.7127888965100372,0.345228910446167,1.0,1.0,758,lvhc
380,56.0,1.7730031013488767,1.0,0.0,21442.0,111.0,0.38621493810936613,0.3954548835754394,0.0,0.0,758,lvhc
381,64.0,1.6399619579315183,1.0,0.0,21506.0,111.0,0.3263201763657879,0.3211331367492676,0.0,0.0,758,lvhc
382,56.0,1.6630558967590334,1.0,0.0,21562.0,111.0,0.2561958991455304,0.41284799575805664,1.0,1.0,758,lvhc
383,50.0,1.5806138515472412,1.0,0.0,21612.0,111.0,0.28683338530212327,0.2992379665374756,0.0,0.0,758,lvhc
384,59.0,1.7880930900573733,1.0,0.0,21671.0,111.0,0.4748460535203922,0.31503415107727045,0.0,0.0,758,lvhc
385,51.0,1.7971320152282715,1.0,0.0,21722.0,111.0,0.505342387379207,0.3026769161224365,1.0,1.0,758,lvhc
386,60.0,1.6031701564788818,1.0,0.0,21782.0,111.0,0.30878355089135984,0.3037538528442382,0.0,0.0,758,lvhc
387,64.0,1.8845620155334473,1.0,0.0,21846.0,111.0,0.6097787839082656,0.2908778190612793,0.0,0.0,758,lvhc
388,56.0,1.7629978656768797,1.0,0.0,21902.0,111.0,0.5229260393201614,0.2555420398712158,1.0,1.0,758,lvhc
389,54.0,1.886035203933716,1.0,0.0,21956.0,111.0,0.5590103107927041,0.33890604972839355,0.0,0.0,758,lvhc
390,54.0,1.9242608547210691,1.0,0.0,22010.0,111.0,0.5500184637724653,0.37967801094055176,1.0,1.0,758,lvhc
391,59.0,1.79956316947937,1.0,0.0,22069.0,111.0,0.4997026681552004,0.30830502510070795,1.0,1.0,758,lvhc
392,54.0,1.887324810028076,1.0,0.0,22123.0,111.0,0.4704823177780189,0.4214961528778076,1.0,1.0,758,lvhc
393,62.0,1.9799549579620357,1.0,0.0,22185.0,111.0,0.6170366549837025,0.3691670894622803,1.0,1.0,758,lvhc
394,61.0,1.6986849308013916,1.0,0.0,22246.0,111.0,0.4159989858673034,0.2788889408111572,0.0,0.0,758,lvhc
395,56.0,2.103224039077759,1.0,0.0,22302.0,111.0,0.5192083294659418,0.579996109008789,0.0,0.0,758,lvhc
396,59.0,1.8318190574646,1.0,0.0,22361.0,111.0,0.5177854533592754,0.31503796577453613,1.0,1.0,758,lvhc
397,61.0,1.75606107711792,1.0,0.0,22422.0,111.0,0.44067440186590007,0.3197879791259766,0.0,0.0,758,lvhc
398,62.0,1.781247854232788,1.0,0.0,22484.0,111.0,0.4553131643271098,0.33582186698913574,0.0,0.0,758,lvhc
399,59.0,1.740468978881836,1.0,0.0,22543.0,111.0,0.4292166046697271,0.31354117393493647,0.0,0.0,758,lvhc
400,56.0,1.6714739799499514,1.0,0.0,22599.0,111.0,0.40078880107976456,0.279325008392334,0.0,0.0,758,lvhc
401,57.0,1.6832280158996582,1.0,0.0,22656.0,111.0,0.3508340180872477,0.3411750793457031,1.0,1.0,758,lvhc
402,59.0,1.9583489894866943,1.0,0.0,22715.0,111.0,0.6922392918489096,0.2617919445037841,1.0,1.0,758,lvhc
403,60.0,1.752939939498901,1.0,0.0,22775.0,111.0,0.4455238424795244,0.3127930164337159,0.0,0.0,758,lvhc
404,51.0,1.6064429283142088,1.0,0.0,22826.0,111.0,0.3021552517008981,0.31485199928283686,1.0,1.0,758,lvhc
405,56.0,2.035365104675293,1.0,0.0,22882.0,111.0,0.7038166456148148,0.3282279968261719,0.0,0.0,758,lvhc
406,63.0,1.6014010906219482,1.0,0.0,22945.0,111.0,0.32242132292853926,0.27898192405700684,1.0,1.0,758,lvhc
407,61.0,2.0390760898590083,1.0,0.0,23006.0,111.0,0.7278205955273825,0.3180198669433594,1.0,1.0,758,lvhc
408,56.0,1.907665014266968,1.0,0.0,23062.0,111.0,0.6356816736904924,0.2867469787597656,1.0,1.0,758,lvhc
409,46.0,1.6972148418426511,0.0,1.0,23108.0,112.0,0.4498361789783653,0.24917411804199216,1.0,0.0,758,lvhc
410,56.0,2.007723093032837,1.0,0.0,23164.0,112.0,0.724018067883006,0.28920006752014155,1.0,1.0,758,lvhc
411,57.0,1.7916059494018555,1.0,0.0,23221.0,112.0,0.44932321261060093,0.35532593727111816,0.0,0.0,758,lvhc
412,62.0,1.7614200115203855,1.0,0.0,23283.0,112.0,0.4441822544787865,0.32332587242126465,0.0,0.0,758,lvhc
413,50.0,1.5942630767822263,1.0,0.0,23333.0,112.0,0.3219641941401532,0.2864320278167725,1.0,1.0,758,lvhc
414,55.0,1.9533169269561768,1.0,0.0,23388.0,112.0,0.4419256453832778,0.5234479904174805,1.0,1.0,758,lvhc
415,50.0,2.1547489166259766,1.0,0.0,23438.0,112.0,0.6964834617919049,0.4695279598236084,0.0,0.0,758,lvhc
416,54.0,1.5802080631256101,1.0,0.0,23492.0,112.0,0.2772145897516726,0.32659101486206055,0.0,0.0,758,lvhc
417,55.0,1.72768497467041,1.0,0.0,23547.0,112.0,0.4714274146706484,0.2683820724487305,1.0,1.0,758,lvhc
418,61.0,1.9275181293487549,1.0,0.0,23608.0,112.0,0.6155346974701789,0.3221299648284912,1.0,1.0,758,lvhc
419,59.0,1.571691036224365,1.0,0.0,23667.0,112.0,0.3043222318269501,0.2638509273529053,0.0,0.0,758,lvhc
420,57.0,1.6960570812225342,1.0,0.0,23724.0,112.0,0.4502896668484564,0.2500419616699219,1.0,1.0,758,lvhc
421,56.0,2.054022789001465,1.0,0.0,23780.0,112.0,0.7041256071743194,0.3571901321411133,1.0,1.0,758,lvhc
422,54.0,1.8242838382720947,1.0,0.0,23834.0,112.0,0.4953888579352698,0.3373360633850098,0.0,0.0,758,lvhc
423,50.0,1.5954229831695554,1.0,0.0,23884.0,112.0,0.3077565922843893,0.3027079105377197,1.0,1.0,758,lvhc
424,52.0,1.5369160175323484,1.0,0.0,23936.0,112.0,0.294742307318617,0.2597508430480957,0.0,0.0,758,lvhc
425,53.0,1.954524040222168,1.0,0.0,23989.0,112.0,0.6989235379092273,0.2754459381103516,1.0,1.0,758,lvhc
426,50.0,1.726818084716797,1.0,0.0,24039.0,112.0,0.5426483565859873,0.18888807296752927,0.0,0.0,758,lvhc
427,53.0,1.7046217918395996,1.0,0.0,24092.0,112.0,0.41418602923643455,0.30628085136413574,0.0,0.0,758,lvhc
428,50.0,1.7121181488037107,1.0,0.0,24142.0,112.0,0.4429830087626548,0.2823522090911865,1.0,1.0,758,lvhc
429,54.0,1.6718559265136717,1.0,0.0,24196.0,112.0,0.38166748630994884,0.2967820167541504,0.0,0.0,758,lvhc
430,55.0,1.6983871459960933,1.0,0.0,24251.0,112.0,0.43006835795608417,0.2881410121917725,1.0,1.0,758,lvhc
431,60.0,2.0544400215148926,1.0,0.0,24311.0,112.0,0.4845414173785309,0.5791850090026855,1.0,1.0,758,lvhc
432,54.0,1.7888000011444094,1.0,0.0,24365.0,112.0,0.4900838963308543,0.30458307266235357,0.0,0.0,758,lvhc
433,54.0,2.0034539699554443,1.0,0.0,24419.0,112.0,0.5435808058537274,0.4734249114990234,1.0,1.0,758,lvhc
434,56.0,1.797029972076416,1.0,0.0,24475.0,112.0,0.5573225878819985,0.2523841857910156,0.0,0.0,758,lvhc
435,50.0,1.635275840759277,1.0,0.0,24525.0,112.0,0.3595988012093149,0.28047704696655273,0.0,0.0,758,lvhc
436,54.0,1.7672231197357178,1.0,0.0,24579.0,112.0,0.3601222857843692,0.41624617576599116,0.0,0.0,758,lvhc
437,53.0,2.0226209163665767,1.0,0.0,24632.0,112.0,0.7325054145209875,0.297558069229126,1.0,1.0,758,lvhc
438,56.0,1.8448221683502204,1.0,0.0,24688.0,112.0,0.477684902095057,0.3633439540863037,1.0,1.0,758,lvhc
439,56.0,1.7689108848571775,1.0,0.0,24744.0,112.0,0.5466075281929169,0.24398589134216306,0.0,0.0,758,lvhc
440,59.0,1.9255900382995603,1.0,0.0,24803.0,112.0,0.6721598005282478,0.26639199256896967,0.0,0.0,758,lvhc
441,56.0,1.763154983520508,1.0,0.0,24859.0,112.0,0.5021979377073542,0.26818203926086426,1.0,1.0,758,lvhc
442,56.0,1.932255983352661,1.0,0.0,24915.0,112.0,0.3014309573060656,0.6365809440612792,0.0,0.0,758,lvhc
443,44.0,1.8797039985656736,0.0,0.0,24959.0,112.0,0.3977838384940873,0.4783508777618408,1.0,0.0,758,lvhc
444,56.0,1.5059850215911863,1.0,0.0,25015.0,112.0,0.25400475369414266,0.27370190620422363,1.0,1.0,758,lvhc
445,55.0,1.8717458248138428,1.0,0.0,25070.0,112.0,0.5754867350137757,0.30504608154296875,1.0,1.0,758,lvhc
446,56.0,1.8208870887756348,1.0,0.0,25126.0,112.0,0.5464656907417343,0.29146790504455566,0.0,0.0,758,lvhc
447,62.0,1.650201082229614,1.0,0.0,25188.0,112.0,0.4302328477614111,0.23784494400024414,0.0,0.0,758,lvhc
448,56.0,1.582779884338379,1.0,0.0,25244.0,112.0,0.31318768192576946,0.27887606620788574,0.0,0.0,758,lvhc
449,51.0,1.6879169940948486,1.0,0.0,25295.0,112.0,0.4343873499817383,0.265636920928955,0.0,0.0,758,lvhc
450,59.0,1.822721004486084,1.0,0.0,25354.0,112.0,0.5570576390047128,0.273698091506958,1.0,1.0,758,lvhc
451,55.0,1.964003086090088,1.0,0.0,25409.0,112.0,0.6876958218853765,0.2830650806427002,1.0,1.0,758,lvhc
452,52.0,1.5402700901031496,1.0,0.0,25461.0,112.0,0.2618158190773606,0.2786140441894531,1.0,1.0,758,lvhc
453,60.0,1.7014119625091555,1.0,0.0,25521.0,112.0,0.29660100240840864,0.4142398834228516,1.0,1.0,758,lvhc
454,56.0,1.8617160320281985,1.0,0.0,25577.0,112.0,0.6080618393113659,0.27536201477050787,1.0,1.0,758,lvhc
455,44.0,1.7775559425354004,0.0,0.0,25621.0,112.0,0.5357995126709622,0.24669408798217776,0.0,1.0,758,lvhc
456,56.0,1.8524320125579836,1.0,0.0,25677.0,112.0,0.5715926590217331,0.28043508529663086,0.0,0.0,758,lvhc
457,59.0,1.863460063934326,1.0,0.0,25736.0,112.0,0.4519272070452549,0.41549682617187506,0.0,0.0,758,lvhc
458,52.0,1.9116320610046384,1.0,0.0,25788.0,112.0,0.5135496567719039,0.3959369659423828,0.0,0.0,758,lvhc
459,56.0,1.6696970462799074,1.0,0.0,25844.0,112.0,0.3834968590867597,0.2959468364715577,1.0,1.0,758,lvhc
460,46.0,1.8125729560852049,0.0,0.0,25890.0,112.0,0.4793846325779068,0.3316068649291993,1.0,0.0,758,lvhc
461,56.0,2.1016030311584473,1.0,0.0,25946.0,112.0,0.7307810865925025,0.3927359580993652,1.0,1.0,758,lvhc
462,54.0,1.955069065093994,1.0,0.0,26000.0,112.0,0.6693537602136712,0.3098950386047363,0.0,0.0,758,lvhc
463,56.0,1.9823799133300783,1.0,0.0,26056.0,112.0,0.7184404327033558,0.2670888900756836,1.0,1.0,758,lvhc
464,56.0,1.7342658042907715,1.0,0.0,26112.0,112.0,0.3864368306734162,0.34892797470092773,1.0,1.0,758,lvhc
465,59.0,2.0825498104095455,1.0,0.0,26171.0,112.0,0.652190731185375,0.4296548366546631,0.0,0.0,758,lvhc
466,54.0,1.7263400554656985,1.0,0.0,26225.0,112.0,0.4621310450720096,0.2714111804962159,1.0,1.0,758,lvhc
467,60.0,2.1318910121917725,1.0,0.0,26285.0,112.0,0.6938643699241057,0.4558799266815186,1.0,1.0,758,lvhc
468,54.0,1.8655979633331297,1.0,0.0,26339.0,112.0,0.5263980967257629,0.3454759120941162,0.0,0.0,758,lvhc
469,52.0,1.6436779499053955,1.0,0.0,26391.0,112.0,0.3536222086840028,0.3009371757507324,0.0,0.0,758,lvhc
470,56.0,2.082114219665528,1.0,0.0,26447.0,112.0,0.718820358848676,0.3680198192596436,0.0,0.0,758,lvhc
471,54.0,1.864182949066162,1.0,0.0,26501.0,112.0,0.549904230184897,0.31181907653808594,1.0,1.0,758,lvhc
472,52.0,2.0565581321716304,1.0,0.0,26553.0,112.0,0.6730847371213089,0.38812208175659174,1.0,1.0,758,lvhc
473,54.0,1.7911980152130125,1.0,0.0,26607.0,112.0,0.3480636360888197,0.4462149143218994,1.0,1.0,758,lvhc
474,60.0,1.7667999267578125,1.0,0.0,26667.0,112.0,0.43149618363539083,0.3549628257751465,1.0,1.0,758,lvhc
475,55.0,1.7580959796905518,1.0,0.0,26722.0,112.0,0.32314501771109433,0.446382999420166,0.0,0.0,758,lvhc
476,56.0,2.129830837249756,1.0,0.0,26778.0,112.0,0.7359605821989279,0.4067211151123047,0.0,0.0,758,lvhc
477,55.0,1.673325777053833,1.0,0.0,26833.0,112.0,0.4097483715411092,0.270456075668335,1.0,1.0,758,lvhc
478,55.0,2.1527578830718994,1.0,0.0,26888.0,112.0,0.7122262795087086,0.4498300552368164,0.0,0.0,758,lvhc
479,63.0,1.5824191570281982,1.0,0.0,26951.0,112.0,0.2618738974146432,0.337921142578125,0.0,0.0,758,lvhc
480,57.0,2.0097789764404297,1.0,0.0,27008.0,112.0,0.5880652065456543,0.4286420345306397,1.0,1.0,758,lvhc
481,56.0,1.8283860683441155,1.0,0.0,27064.0,112.0,0.4500415092588473,0.3810560703277588,1.0,1.0,758,lvhc
482,51.0,1.9469869136810305,1.0,0.0,27115.0,112.0,0.6135905123416028,0.33678293228149414,0.0,0.0,758,lvhc
483,52.0,1.9925451278686523,1.0,0.0,27167.0,112.0,0.722755640460039,0.2775280475616455,1.0,1.0,758,lvhc
484,63.0,1.8637919425964355,1.0,0.0,27230.0,112.0,0.5701159603298688,0.30458307266235357,1.0,1.0,758,lvhc
485,55.0,1.9563310146331787,1.0,0.0,27285.0,112.0,0.5599193043990092,0.409991979598999,0.0,0.0,758,lvhc
486,55.0,1.8948509693145752,1.0,0.0,27340.0,112.0,0.5881496115849829,0.317018985748291,0.0,0.0,758,lvhc
487,56.0,1.995307207107544,1.0,0.0,27396.0,112.0,0.5835554084936247,0.4141230583190918,0.0,0.0,758,lvhc
488,57.0,1.909718990325928,1.0,0.0,27453.0,112.0,0.32698037618698794,0.5822110176086426,0.0,0.0,758,lvhc
489,50.0,1.6516230106353762,1.0,0.0,27503.0,112.0,0.3453275123410542,0.32324194908142084,0.0,0.0,758,lvhc
490,54.0,1.7467319965362549,1.0,0.0,27557.0,112.0,0.3920835059726387,0.3773269653320313,1.0,1.0,758,lvhc
491,51.0,1.9698090553283687,1.0,0.0,27608.0,112.0,0.595093310591154,0.377418041229248,0.0,0.0,758,lvhc
492,57.0,1.726022005081177,1.0,0.0,27665.0,112.0,0.43802183849997045,0.2998089790344238,0.0,0.0,758,lvhc
493,53.0,1.7513082027435303,1.0,0.0,27718.0,112.0,0.2895505218071586,0.4625821113586426,0.0,0.0,758,lvhc
494,56.0,1.6116209030151367,1.0,0.0,27774.0,112.0,0.2513171746439814,0.3685989379882813,0.0,0.0,758,lvhc
495,59.0,1.7464380264282229,1.0,0.0,27833.0,112.0,0.414309695822053,0.34297680854797363,0.0,0.0,758,lvhc
496,50.0,1.7958929538726809,1.0,0.0,27883.0,112.0,0.493529566602559,0.31176209449768066,1.0,1.0,758,lvhc
497,50.0,2.0312511920928955,1.0,0.0,27933.0,112.0,0.707997658059314,0.3357880115509033,1.0,1.0,758,lvhc
498,54.0,2.041310787200928,1.0,0.0,27987.0,112.0,0.6661101038242444,0.36047196388244634,1.0,1.0,758,lvhc
499,59.0,1.7037360668182373,1.0,0.0,28046.0,112.0,0.33694213702999354,0.3746531009674072,1.0,1.0,758,lvhc
500,50.0,1.9428081512451167,1.0,0.0,28096.0,112.0,0.5795497654187649,0.36361098289489757,0.0,0.0,758,lvhc
501,42.0,114.22532701492307,0.0,1.0,28138.0,111.0,0.6932105643176087,0.48356294631958,0.0,1.0,758,lvhc
502,62.0,1.7127048969268799,1.0,0.0,28200.0,111.0,0.4561927968847641,0.2659909725189209,1.0,1.0,758,lvhc
503,0.0,5.917922019958496,1.0,-2.0,28200.0,111.0,0.7074534276975077,0.09737896919250488,1.0,1.0,758,lvhc
504,57.0,1.9545948505401605,1.0,0.0,28257.0,111.0,0.5956108670856586,0.3659181594848633,1.0,1.0,758,lvhc
505,60.0,1.7847139835357668,1.0,0.0,28317.0,111.0,0.41392959401794693,0.38306498527526855,0.0,0.0,758,lvhc
506,55.0,1.8240628242492676,1.0,0.0,28372.0,111.0,0.5379368827455935,0.30982208251953125,0.0,0.0,758,lvhc
507,54.0,1.8815081119537356,1.0,0.0,28426.0,111.0,0.5861442935079186,0.29847192764282227,1.0,1.0,758,lvhc
508,57.0,2.223073005676269,1.0,0.0,28483.0,111.0,0.6758939099144722,0.5471379756927489,0.0,0.0,758,lvhc
509,56.0,1.719214916229248,1.0,0.0,28539.0,111.0,0.3954794205088492,0.34058499336242676,0.0,0.0,758,lvhc
510,56.0,1.915842056274414,1.0,0.0,28595.0,111.0,0.4779834910314713,0.4469199180603027,1.0,1.0,758,lvhc
511,56.0,1.6293611526489253,1.0,0.0,28651.0,111.0,0.25765210749946227,0.38946604728698725,1.0,1.0,758,lvhc
512,53.0,1.9114849567413328,1.0,0.0,28704.0,111.0,0.5689216877996665,0.34610605239868164,0.0,0.0,758,lvhc
513,56.0,1.7824819087982178,1.0,0.0,28760.0,111.0,0.4682150678016527,0.3205280303955078,0.0,0.0,758,lvhc
514,59.0,1.8698980808258052,1.0,0.0,28819.0,111.0,0.6047446673132453,0.27235913276672363,0.0,0.0,758,lvhc
515,51.0,2.0643670558929443,1.0,0.0,28870.0,111.0,0.7357244714171532,0.33167099952697754,0.0,0.0,758,lvhc
516,52.0,1.6481139659881594,1.0,0.0,28922.0,111.0,0.3676383941757385,0.28107786178588867,1.0,1.0,758,lvhc
517,56.0,1.7260990142822266,1.0,0.0,28978.0,111.0,0.4104301526499927,0.3281030654907226,0.0,0.0,758,lvhc
518,55.0,2.0312898159027095,1.0,0.0,29033.0,111.0,0.7081508495195519,0.33142304420471197,1.0,1.0,758,lvhc
519,57.0,1.817559003829956,1.0,0.0,29090.0,111.0,0.4927149093571335,0.33124303817749023,1.0,1.0,758,lvhc
520,62.0,1.7121179103851318,1.0,0.0,29152.0,111.0,0.2884580711331495,0.4326701164245605,0.0,0.0,758,lvhc
521,56.0,1.7157499790191653,1.0,0.0,29208.0,111.0,0.43744806471703296,0.27828907966613764,1.0,1.0,758,lvhc
522,51.0,1.8492639064788816,1.0,0.0,29259.0,111.0,0.4867536199906664,0.3774468898773193,0.0,0.0,758,lvhc
523,56.0,1.7016119956970215,1.0,0.0,29315.0,111.0,0.3719006118344282,0.33146095275878906,1.0,1.0,758,lvhc
524,60.0,1.770239114761352,1.0,0.0,29375.0,111.0,0.4754252814427752,0.30556392669677734,0.0,0.0,758,lvhc
525,60.0,1.7870609760284422,1.0,0.0,29435.0,111.0,0.44593244773053053,0.35194802284240717,0.0,0.0,758,lvhc
526,59.0,2.3044271469116206,1.0,0.0,29494.0,111.0,0.6002581383386345,0.7246689796447756,1.0,1.0,758,lvhc
527,59.0,1.9287059307098389,1.0,0.0,29553.0,111.0,0.5291546413529148,0.4060671329498291,1.0,1.0,758,lvhc
528,56.0,1.6341891288757324,1.0,0.0,29609.0,111.0,0.3469929507745162,0.30548310279846197,0.0,0.0,758,lvhc
529,59.0,1.6941928863525388,1.0,0.0,29668.0,111.0,0.407820256163042,0.30516600608825684,0.0,0.0,758,lvhc
530,62.0,2.0163440704345703,1.0,0.0,29730.0,111.0,0.5740778437583791,0.4592571258544922,0.0,0.0,758,lvhc
531,56.0,1.5691859722137451,1.0,0.0,29786.0,111.0,0.26035188927718356,0.31666612625122076,0.0,0.0,758,lvhc
532,56.0,1.6357319355010984,1.0,0.0,29842.0,111.0,0.3128028866384476,0.3431119918823242,0.0,0.0,758,lvhc
533,63.0,2.1434309482574463,1.0,0.0,29905.0,111.0,0.5726456639933796,0.5855388641357422,0.0,0.0,758,lvhc
534,53.0,1.9493741989135744,1.0,0.0,29958.0,111.0,0.4722118337466525,0.484868049621582,0.0,0.0,758,lvhc
535,52.0,1.867100954055786,1.0,0.0,30010.0,111.0,0.522692979269247,0.3449110984802246,1.0,1.0,758,lvhc
536,54.0,1.958663940429688,1.0,0.0,30064.0,111.0,0.697917633824203,0.26839494705200195,0.0,0.0,758,lvhc
537,60.0,1.6974549293518069,1.0,0.0,30124.0,111.0,0.39581989419030655,0.325390100479126,1.0,1.0,758,lvhc
538,53.0,1.9198429584503172,1.0,0.0,30177.0,111.0,0.6654008103355163,0.27142596244812006,0.0,0.0,758,lvhc
539,53.0,1.670639991760254,1.0,0.0,30230.0,111.0,0.4031211783638275,0.26508092880249023,1.0,1.0,758,lvhc
540,43.0,1.7376160621643064,0.0,0.0,30273.0,111.0,0.4573945220205049,0.2915680408477783,1.0,0.0,758,lvhc
541,56.0,1.7288789749145508,1.0,0.0,30329.0,111.0,0.4363977358027268,0.3072969913482666,1.0,1.0,758,lvhc
542,60.0,1.8839581012725832,1.0,0.0,30389.0,111.0,0.570271346612959,0.3149521350860596,1.0,1.0,758,lvhc
543,53.0,1.758363962173462,1.0,0.0,30442.0,111.0,0.4455236420127328,0.31365203857421875,0.0,0.0,758,lvhc
544,53.0,2.097037076950073,1.0,0.0,30495.0,111.0,0.6757787334174948,0.43884611129760737,0.0,0.0,758,lvhc
545,51.0,1.7134790420532227,1.0,0.0,30546.0,111.0,0.4228777485302917,0.30789899826049805,0.0,0.0,758,lvhc
546,53.0,1.9659280776977537,1.0,0.0,30599.0,111.0,0.6885835791925797,0.27920413017272944,0.0,0.0,758,lvhc
547,59.0,1.941598892211914,1.0,0.0,30658.0,111.0,0.6803427766528269,0.27559685707092285,0.0,0.0,758,lvhc
548,57.0,1.5573010444641113,1.0,0.0,30715.0,111.0,0.25480973638928095,0.3222789764404297,1.0,1.0,758,lvhc
549,56.0,1.7410569190979006,1.0,0.0,30771.0,111.0,0.39578870635944113,0.35269784927368164,0.0,0.0,758,lvhc
550,54.0,1.7472050189971922,1.0,0.0,30825.0,111.0,0.2932164258645297,0.4654340744018554,0.0,0.0,758,lvhc
551,57.0,2.0413861274719234,1.0,0.0,30882.0,111.0,0.7009004786622607,0.34546899795532227,0.0,0.0,758,lvhc
552,57.0,1.5740461349487305,1.0,0.0,30939.0,111.0,0.29210337604846875,0.2925550937652588,0.0,0.0,758,lvhc
553,60.0,2.0565669536590576,1.0,0.0,30999.0,111.0,0.7149960058954127,0.3449831008911133,1.0,1.0,758,lvhc
554,53.0,2.0271079540252686,1.0,0.0,31052.0,111.0,0.6755553084621172,0.36802697181701666,0.0,0.0,758,lvhc
555,57.0,1.610771179199219,1.0,0.0,31109.0,111.0,0.3201399444526436,0.2998101711273193,0.0,0.0,758,lvhc
556,63.0,1.6728479862213133,1.0,0.0,31172.0,111.0,0.3929757750689532,0.28318786621093756,0.0,0.0,758,lvhc
557,57.0,2.0508198738098145,1.0,0.0,31229.0,111.0,0.7268474460543217,0.34054708480834955,1.0,1.0,758,lvhc
558,53.0,1.9787139892578125,1.0,0.0,31282.0,111.0,0.6890397340872378,0.2977020740509033,1.0,1.0,758,lvhc
559,56.0,1.6906399726867676,1.0,0.0,31338.0,111.0,0.3634178318097271,0.3383431434631348,0.0,0.0,758,lvhc
560,52.0,1.6302480697631836,1.0,0.0,31390.0,111.0,0.32714532236481186,0.31016302108764643,1.0,1.0,758,lvhc
561,53.0,1.9815189838409424,1.0,0.0,31443.0,111.0,0.6417381335705409,0.345905065536499,1.0,1.0,758,lvhc
562,53.0,1.7204020023345947,1.0,0.0,31496.0,111.0,0.3791748339342806,0.34960484504699707,1.0,1.0,758,lvhc
563,57.0,1.7742090225219724,1.0,0.0,31553.0,111.0,0.35347213416031104,0.4389350414276123,0.0,0.0,758,lvhc
564,55.0,1.7912008762359617,1.0,0.0,31608.0,111.0,0.5112587793727186,0.2917349338531494,1.0,1.0,758,lvhc
565,54.0,2.022665977478028,1.0,0.0,31662.0,111.0,0.6835228109620131,0.35846495628356934,0.0,0.0,758,lvhc
566,62.0,1.746795892715454,1.0,0.0,31724.0,111.0,0.4309647690348087,0.3112499713897705,0.0,0.0,758,lvhc
567,56.0,1.874499082565308,1.0,0.0,31780.0,111.0,0.5720738399717779,0.3129758834838867,1.0,1.0,758,lvhc
568,55.0,1.9930510520935056,1.0,0.0,31835.0,111.0,0.7317178810475675,0.2686488628387452,0.0,0.0,758,lvhc
569,55.0,1.6481790542602541,1.0,0.0,31890.0,111.0,0.33038764836391776,0.3364040851593017,0.0,0.0,758,lvhc
570,63.0,1.8956141471862789,1.0,0.0,31953.0,111.0,0.3760373626382373,0.5434679985046387,0.0,0.0,758,lvhc
571,62.0,2.0584359169006348,1.0,0.0,32015.0,111.0,0.7341602280653665,0.33750295639038086,0.0,0.0,758,lvhc
572,59.0,1.747892141342163,1.0,0.0,32074.0,111.0,0.33259570504251174,0.42597699165344244,1.0,1.0,758,lvhc
573,52.0,1.741595983505249,1.0,0.0,32126.0,111.0,0.4241575592299465,0.3139970302581787,0.0,0.0,758,lvhc
574,60.0,1.5411739349365237,1.0,0.0,32186.0,111.0,0.2655560084532266,0.286808967590332,1.0,1.0,758,lvhc
575,59.0,1.868196964263916,1.0,0.0,32245.0,111.0,0.5835116187397646,0.2866811752319336,0.0,0.0,758,lvhc
576,55.0,1.8449180126190183,1.0,0.0,32300.0,111.0,0.5452327689088998,0.30816507339477534,0.0,0.0,758,lvhc
577,56.0,2.0114991664886475,1.0,0.0,32356.0,111.0,0.7399617095563643,0.2878739833831787,0.0,0.0,758,lvhc
578,53.0,1.59942889213562,1.0,0.0,32409.0,111.0,0.339864936134325,0.26024580001831055,0.0,0.0,758,lvhc
579,61.0,1.592844009399414,1.0,0.0,32470.0,111.0,0.28284420096763585,0.3162698745727539,1.0,1.0,758,lvhc
580,50.0,1.7803950309753416,1.0,0.0,32520.0,111.0,0.5297494678398906,0.2493069171905517,0.0,0.0,758,lvhc
581,56.0,1.9812548160552976,1.0,0.0,32576.0,111.0,0.7275495936124815,0.2677290439605713,0.0,0.0,758,lvhc
582,48.0,1.713222026824951,0.0,1.0,32624.0,112.0,0.4078345065044164,0.31752800941467285,0.0,1.0,758,lvhc
583,56.0,1.7564241886138916,1.0,0.0,32680.0,112.0,0.4809248027517276,0.27794504165649414,0.0,0.0,758,lvhc
584,54.0,1.6426339149475098,1.0,0.0,32734.0,112.0,0.35708291336093834,0.2939929962158203,1.0,1.0,758,lvhc
585,53.0,1.5675950050354002,1.0,0.0,32787.0,112.0,0.27483546314452395,0.2960331439971924,1.0,1.0,758,lvhc
586,51.0,1.8136200904846191,1.0,0.0,32838.0,112.0,0.4883127798692378,0.33448100090026855,0.0,0.0,758,lvhc
587,56.0,1.7537600994110107,1.0,0.0,32894.0,112.0,0.4921145777489137,0.27384805679321284,1.0,1.0,758,lvhc
588,52.0,1.9841668605804443,1.0,0.0,32946.0,112.0,0.6928600119826669,0.2969038486480713,1.0,1.0,758,lvhc
589,51.0,1.9170780181884763,1.0,0.0,32997.0,112.0,0.6267669300106433,0.3046388626098633,1.0,1.0,758,lvhc
590,56.0,1.6168389320373533,1.0,0.0,33053.0,112.0,0.34399010273271174,0.2860658168792725,1.0,1.0,758,lvhc
591,55.0,1.8793730735778813,1.0,0.0,33108.0,112.0,0.5731951891125919,0.3124098777770996,0.0,0.0,758,lvhc
592,54.0,2.0342438220977788,1.0,0.0,33162.0,112.0,0.7406584874469391,0.30105996131896967,1.0,1.0,758,lvhc
593,53.0,1.6853079795837402,1.0,0.0,33215.0,112.0,0.4263892752262836,0.2668731212615966,1.0,1.0,758,lvhc
594,50.0,1.5874798297882082,1.0,0.0,33265.0,112.0,0.28077376950735966,0.29457116127014155,1.0,1.0,758,lvhc
595,53.0,1.6403098106384275,1.0,0.0,33318.0,112.0,0.33776410271591,0.3262832164764404,1.0,1.0,758,lvhc
596,54.0,1.7947890758514404,1.0,0.0,33372.0,112.0,0.5324470823125761,0.2713119983673096,1.0,1.0,758,lvhc
597,56.0,1.6107530593872073,1.0,0.0,33428.0,112.0,0.27686529856588155,0.32840991020202637,0.0,0.0,758,lvhc
598,52.0,1.7300090789794917,1.0,0.0,33480.0,112.0,0.4234125702753453,0.32246994972229004,1.0,1.0,758,lvhc
599,51.0,1.5909061431884763,1.0,0.0,33531.0,112.0,0.3311758634618912,0.2682218551635742,1.0,1.0,758,lvhc
600,53.0,1.6867308616638181,1.0,0.0,33584.0,112.0,0.43456548937297396,0.26293206214904785,1.0,1.0,758,lvhc
601,54.0,1.5768768787384033,1.0,0.0,33638.0,112.0,0.2783314871694332,0.29999804496765137,0.0,0.0,758,lvhc
602,50.0,1.9847869873046875,1.0,0.0,33688.0,112.0,0.6960783701089306,0.30634403228759766,1.0,1.0,758,lvhc
603,55.0,1.7792460918426511,1.0,0.0,33743.0,112.0,0.4923353596028913,0.29609417915344244,0.0,0.0,758,lvhc
604,50.0,1.566704988479614,1.0,0.0,33793.0,112.0,0.29263611803655154,0.28780794143676763,1.0,1.0,758,lvhc
605,52.0,2.082135200500488,1.0,0.0,33845.0,112.0,0.6911341751990674,0.4082939624786377,1.0,1.0,758,lvhc
606,55.0,1.7313108444213867,1.0,0.0,33900.0,112.0,0.4227787730665014,0.313014030456543,1.0,1.0,758,lvhc
607,56.0,1.9081130027771005,1.0,0.0,33956.0,112.0,0.5641661391510748,0.3567359447479248,0.0,0.0,758,lvhc
608,53.0,1.840935945510864,1.0,0.0,34009.0,112.0,0.5219030338073873,0.3418428897857666,0.0,0.0,758,lvhc
609,55.0,1.576313018798828,1.0,0.0,34064.0,112.0,0.31516450488473874,0.27585506439208984,0.0,0.0,758,lvhc
610,54.0,1.798966884613037,1.0,0.0,34118.0,112.0,0.4973188317041195,0.31233096122741694,0.0,0.0,758,lvhc
611,56.0,1.93257999420166,1.0,0.0,34174.0,112.0,0.6631787179596168,0.2823429107666017,0.0,0.0,758,lvhc
612,55.0,1.9814720153808592,1.0,0.0,34229.0,112.0,0.7446431682742322,0.25708580017089844,0.0,0.0,758,lvhc
613,54.0,1.9792819023132324,1.0,0.0,34283.0,112.0,0.6907577974694271,0.30188202857971197,0.0,0.0,758,lvhc
614,52.0,2.1071519851684566,1.0,0.0,34335.0,112.0,0.7479031141288719,0.3695268630981445,1.0,1.0,758,lvhc
615,55.0,1.6133511066436765,1.0,0.0,34390.0,112.0,0.27854857548164397,0.34555697441101074,1.0,1.0,758,lvhc
616,56.0,1.7295088768005373,1.0,0.0,34446.0,112.0,0.3414014877999764,0.40004897117614746,1.0,1.0,758,lvhc
617,54.0,1.6734681129455564,1.0,0.0,34500.0,112.0,0.3981846706390716,0.29172801971435547,1.0,1.0,758,lvhc
618,55.0,1.6645829677581787,1.0,0.0,34555.0,112.0,0.3795200752155968,0.3041019439697266,1.0,1.0,758,lvhc
619,53.0,1.8584201335906985,1.0,0.0,34608.0,112.0,0.5378653518196195,0.3335459232330322,0.0,0.0,758,lvhc
620,54.0,1.8550369739532473,1.0,0.0,34662.0,112.0,0.5429710346677856,0.31684303283691406,1.0,1.0,758,lvhc
621,50.0,1.767503023147583,1.0,0.0,34712.0,112.0,0.4606663958237439,0.32294392585754395,0.0,0.0,758,lvhc
622,56.0,1.697618007659912,1.0,0.0,34768.0,112.0,0.4083839938093961,0.30830883979797363,0.0,0.0,758,lvhc
623,56.0,2.021583080291748,1.0,0.0,34824.0,112.0,0.7130902587510637,0.3253490924835205,1.0,1.0,758,lvhc
624,54.0,1.6255760192871092,1.0,0.0,34878.0,112.0,0.3557844826960948,0.2918009757995605,0.0,0.0,758,lvhc
625,52.0,1.6601297855377197,1.0,0.0,34930.0,112.0,0.34932174063098537,0.32056593894958496,0.0,0.0,758,lvhc
626,57.0,1.9221320152282717,1.0,0.0,34987.0,112.0,0.6045820895313978,0.3259260654449463,1.0,1.0,758,lvhc
627,51.0,2.017190933227539,1.0,0.0,35038.0,112.0,0.7383813466305567,0.29133605957031244,0.0,0.0,758,lvhc
628,51.0,1.8616111278533936,1.0,0.0,35089.0,112.0,0.5835905598615757,0.2877471446990966,1.0,1.0,758,lvhc
629,51.0,1.9987239837646484,1.0,0.0,35140.0,112.0,0.6656588360107569,0.33011317253112793,1.0,1.0,758,lvhc
630,51.0,1.818329095840454,1.0,0.0,35191.0,112.0,0.5175599883990476,0.3011128902435303,1.0,1.0,758,lvhc
631,53.0,1.7984259128570559,1.0,0.0,35244.0,112.0,0.43283494297736413,0.37262582778930653,0.0,0.0,758,lvhc
632,51.0,2.077347993850708,1.0,0.0,35295.0,112.0,0.7432824704390953,0.3376510143280029,0.0,0.0,758,lvhc
633,54.0,1.6668148040771484,1.0,0.0,35349.0,112.0,0.3938680613465426,0.2911570072174072,1.0,1.0,758,lvhc
634,50.0,1.9968421459198,1.0,0.0,35399.0,112.0,0.6238902632868033,0.3794682025909424,0.0,0.0,758,lvhc
635,52.0,1.9547219276428225,1.0,0.0,35451.0,112.0,0.5620541415803832,0.3976030349731445,0.0,0.0,758,lvhc
636,55.0,1.9868850708007808,1.0,0.0,35506.0,112.0,0.7155793445094432,0.2806360721588135,0.0,0.0,758,lvhc
637,52.0,1.7483539581298828,1.0,0.0,35558.0,112.0,0.4309362061966793,0.3206820487976074,1.0,1.0,758,lvhc
638,53.0,1.6651821136474607,1.0,0.0,35611.0,112.0,0.39627224330293004,0.28940391540527344,0.0,0.0,758,lvhc
639,50.0,1.8806700706481931,1.0,0.0,35661.0,112.0,0.5601555447098909,0.3357667922973632,1.0,1.0,758,lvhc
640,54.0,2.081418037414551,1.0,0.0,35715.0,112.0,0.7081897738687944,0.3844990730285645,1.0,1.0,758,lvhc
641,59.0,1.9615328311920168,1.0,0.0,35774.0,112.0,0.6198966880340014,0.35024690628051763,0.0,0.0,758,lvhc
642,52.0,1.8247361183166504,1.0,0.0,35826.0,112.0,0.4782006017263308,0.3536720275878906,1.0,1.0,758,lvhc
643,52.0,1.7250049114227293,1.0,0.0,35878.0,112.0,0.4033808259379276,0.3411428928375244,1.0,1.0,758,lvhc
644,51.0,1.7316839694976807,1.0,0.0,35929.0,112.0,0.3851531627521078,0.34679198265075684,0.0,0.0,758,lvhc
645,56.0,1.8221528530120847,1.0,0.0,35985.0,112.0,0.40736622451753446,0.41151404380798334,1.0,1.0,758,lvhc
646,52.0,1.7360951900482176,1.0,0.0,36037.0,112.0,0.2603770464264134,0.482936143875122,0.0,0.0,758,lvhc
647,56.0,2.0084710121154785,1.0,0.0,36093.0,112.0,0.6351981109438986,0.38254094123840326,0.0,0.0,758,lvhc
648,55.0,2.0803139209747314,1.0,0.0,36148.0,112.0,0.7154935493448312,0.3440520763397216,0.0,0.0,758,lvhc
649,52.0,1.879854917526245,1.0,0.0,36200.0,112.0,0.5789201801863109,0.2987630367279053,0.0,0.0,758,lvhc
650,50.0,2.0406360626220703,1.0,0.0,36250.0,112.0,0.2866322969547295,0.761178970336914,1.0,1.0,758,lvhc
651,54.0,1.731093168258667,1.0,0.0,36304.0,112.0,0.41766015708998966,0.31323599815368647,0.0,0.0,758,lvhc
652,52.0,1.9022488594055171,1.0,0.0,36356.0,112.0,0.5198804087801467,0.38303184509277344,1.0,1.0,758,lvhc
653,59.0,1.84138298034668,1.0,0.0,36415.0,112.0,0.5280127824763843,0.3279671669006348,0.0,0.0,758,lvhc
654,55.0,1.7397539615631104,1.0,0.0,36470.0,112.0,0.4512486609555135,0.3057980537414551,0.0,0.0,758,lvhc
655,56.0,2.1613099575042725,1.0,0.0,36526.0,112.0,0.5791939146235852,0.5878920555114746,0.0,0.0,758,lvhc
656,55.0,1.7678110599517822,1.0,0.0,36581.0,112.0,0.4971721352175928,0.2828679084777832,1.0,1.0,758,lvhc
657,50.0,1.6764199733734133,1.0,0.0,36631.0,112.0,0.37380094410177467,0.32629609107971197,1.0,1.0,758,lvhc
658,51.0,1.8542881011962884,1.0,0.0,36682.0,112.0,0.5280243106154349,0.3360171318054199,1.0,1.0,758,lvhc
659,52.0,1.9393069744110107,1.0,0.0,36734.0,112.0,0.683919145971986,0.2722499370574951,0.0,0.0,758,lvhc
660,55.0,1.7365288734436033,1.0,0.0,36789.0,112.0,0.487414878065754,0.24533009529113764,1.0,1.0,758,lvhc
661,54.0,1.8745961189270015,1.0,0.0,36843.0,112.0,0.6452335614372084,0.2308969497680664,0.0,0.0,758,lvhc
662,52.0,1.7130920886993408,1.0,0.0,36895.0,112.0,0.40868275000046006,0.32029199600219727,0.0,0.0,758,lvhc
663,53.0,1.9647409915924072,1.0,0.0,36948.0,112.0,0.6399267649451694,0.3366739749908447,1.0,1.0,758,lvhc
664,55.0,1.714643955230713,1.0,0.0,37003.0,112.0,0.3549456198254242,0.3621101379394531,1.0,1.0,758,lvhc
665,50.0,2.069387912750244,1.0,0.0,37053.0,112.0,0.6241293590081364,0.4475281238555908,1.0,1.0,758,lvhc
666,50.0,2.0154311656951904,1.0,0.0,37103.0,112.0,0.7395422075907809,0.28893518447875977,1.0,1.0,758,lvhc
667,61.0,1.6385419368743899,1.0,0.0,37164.0,112.0,0.32856554251703174,0.32524585723876953,1.0,1.0,758,lvhc
668,46.0,1.817639112472534,0.0,1.0,37210.0,111.0,0.5460763023319506,0.2930641174316406,0.0,1.0,758,lvhc
669,56.0,2.023468017578125,1.0,0.0,37266.0,111.0,0.6028723570648497,0.4353940486907959,0.0,0.0,758,lvhc
670,54.0,1.5878989696502683,1.0,0.0,37320.0,111.0,0.3411552988744132,0.24712991714477536,0.0,0.0,758,lvhc
671,55.0,1.958648920059204,1.0,0.0,37375.0,111.0,0.6995161153853352,0.2778458595275879,1.0,1.0,758,lvhc
672,56.0,1.6433401107788084,1.0,0.0,37431.0,111.0,0.3765554477220263,0.2612440586090088,0.0,0.0,758,lvhc
673,56.0,1.704742908477783,1.0,0.0,37487.0,111.0,0.4646524369177386,0.2600018978118896,1.0,1.0,758,lvhc
674,51.0,1.7952032089233398,1.0,0.0,37538.0,111.0,0.5931371048486995,0.22603893280029294,0.0,0.0,758,lvhc
675,52.0,1.7548840045928957,1.0,0.0,37590.0,111.0,0.5481374448349126,0.21706509590148926,1.0,1.0,758,lvhc
676,56.0,1.9755289554595947,1.0,0.0,37646.0,111.0,0.7235513825873585,0.276170015335083,1.0,1.0,758,lvhc
677,56.0,1.6054589748382566,1.0,0.0,37702.0,111.0,0.3295083090532703,0.29099988937377924,1.0,1.0,758,lvhc
678,38.0,1.7356901168823242,0.0,0.0,37740.0,111.0,0.3985537274503781,0.34796214103698725,0.0,1.0,758,lvhc
679,56.0,1.6293959617614746,1.0,0.0,37796.0,111.0,0.2614958661789516,0.3837180137634277,0.0,0.0,758,lvhc
680,60.0,1.7900209426879883,1.0,0.0,37856.0,111.0,0.43475836002458174,0.3654320240020752,1.0,1.0,758,lvhc
681,54.0,1.8847239017486568,1.0,0.0,37910.0,111.0,0.5527377054087477,0.33746814727783203,0.0,0.0,758,lvhc
682,56.0,1.7072539329528806,1.0,0.0,37966.0,111.0,0.4102409008516761,0.3051998615264892,0.0,0.0,758,lvhc
683,56.0,1.955537796020508,1.0,0.0,38022.0,111.0,0.5823445883540237,0.38929986953735357,1.0,1.0,758,lvhc
684,52.0,1.7583208084106443,1.0,0.0,38074.0,111.0,0.5075024854655996,0.2576258182525635,0.0,0.0,758,lvhc
685,51.0,1.9349379539489744,1.0,0.0,38125.0,111.0,0.6923185936069193,0.2576940059661865,1.0,1.0,758,lvhc
686,60.0,1.9525430202484129,1.0,0.0,38185.0,111.0,0.6949412090275524,0.27646207809448237,0.0,0.0,758,lvhc
687,52.0,1.8360540866851809,1.0,0.0,38237.0,111.0,0.5811888828745339,0.2725532054901123,0.0,0.0,758,lvhc
688,60.0,1.8862588405609129,1.0,0.0,38297.0,111.0,0.634164268916969,0.26527380943298334,1.0,1.0,758,lvhc
689,55.0,1.93969202041626,1.0,0.0,38352.0,111.0,0.5739927270720097,0.37035512924194336,0.0,0.0,758,lvhc
690,56.0,1.4983651638031004,1.0,0.0,38408.0,111.0,0.2561080843762089,0.2450389862060547,1.0,1.0,758,lvhc
691,53.0,1.865628004074097,1.0,0.0,38461.0,111.0,0.4382756422790109,0.4340910911560058,0.0,0.0,758,lvhc
692,51.0,1.7494540214538572,1.0,0.0,38512.0,111.0,0.471134989034504,0.2885000705718994,1.0,1.0,758,lvhc
693,57.0,1.81380295753479,1.0,0.0,38569.0,111.0,0.5182751488570245,0.3065841197967529,1.0,1.0,758,lvhc
694,63.0,1.736710071563721,1.0,0.0,38632.0,111.0,0.4551486977235417,0.2879359722137451,0.0,0.0,758,lvhc
695,52.0,1.9273800849914553,1.0,0.0,38684.0,111.0,0.665741146471006,0.26572203636169434,0.0,0.0,758,lvhc
696,64.0,1.9070119857788084,1.0,0.0,38748.0,111.0,0.6395398657912345,0.2634379863739014,1.0,1.0,758,lvhc
697,55.0,1.5702230930328367,1.0,0.0,38803.0,111.0,0.26022785813134813,0.31657099723815924,1.0,1.0,758,lvhc
698,55.0,1.916935920715332,1.0,0.0,38858.0,111.0,0.610197922901906,0.32688808441162104,0.0,0.0,758,lvhc
699,53.0,1.830597162246704,1.0,0.0,38911.0,111.0,0.5742366824822178,0.26930093765258784,1.0,1.0,758,lvhc
700,50.0,1.9919638633728027,1.0,0.0,38961.0,111.0,0.7327920166497961,0.27396988868713373,1.0,1.0,758,lvhc
701,54.0,1.6368191242218013,1.0,0.0,39015.0,111.0,0.3534351635934108,0.28606510162353516,0.0,0.0,758,lvhc
702,50.0,1.7292778491973877,1.0,0.0,39065.0,111.0,0.43268173351163863,0.3047249317169189,0.0,0.0,758,lvhc
703,54.0,1.9513380527496336,1.0,0.0,39119.0,111.0,0.717179949353072,0.2304389476776123,1.0,1.0,758,lvhc
704,56.0,1.8812830448150637,1.0,0.0,39175.0,111.0,0.5820366814725692,0.2997150421142578,1.0,1.0,758,lvhc
705,51.0,2.071126937866211,1.0,0.0,39226.0,111.0,0.7031298867225569,0.3693809509277344,1.0,1.0,758,lvhc
706,56.0,1.8167099952697756,1.0,0.0,39282.0,111.0,0.5034171050997728,0.31273984909057617,1.0,1.0,758,lvhc
707,50.0,1.9298710823059075,1.0,0.0,39332.0,111.0,0.6665260387595026,0.26923203468322754,1.0,1.0,758,lvhc
708,55.0,1.5783350467681885,1.0,0.0,39387.0,111.0,0.2953413073541277,0.2829139232635498,0.0,0.0,758,lvhc
709,60.0,2.008833169937134,1.0,0.0,39447.0,111.0,0.6705140967681216,0.359309196472168,1.0,1.0,758,lvhc
710,55.0,1.8588278293609617,1.0,0.0,39502.0,111.0,0.6295031787561371,0.2297079563140869,1.0,1.0,758,lvhc
711,56.0,1.7064361572265625,1.0,0.0,39558.0,111.0,0.4528627096397074,0.2696409225463868,0.0,0.0,758,lvhc
712,54.0,1.86358904838562,1.0,0.0,39612.0,111.0,0.4665183617223977,0.4031410217285156,1.0,1.0,758,lvhc
713,59.0,1.9934837818145752,1.0,0.0,39671.0,111.0,0.7264618559991662,0.2694361209869385,1.0,1.0,758,lvhc
714,56.0,1.8144738674163816,1.0,0.0,39727.0,111.0,0.5578778629269608,0.26689696311950684,1.0,1.0,758,lvhc
715,41.0,1.844572067260742,0.0,0.0,39768.0,111.0,0.585835124303788,0.26766490936279297,0.0,1.0,758,lvhc
716,59.0,1.6945719718933103,1.0,0.0,39827.0,111.0,0.39735240999257915,0.2947120666503906,0.0,0.0,758,lvhc
717,56.0,2.024876117706299,1.0,0.0,39883.0,111.0,0.7053302927603137,0.3314080238342285,0.0,0.0,758,lvhc
718,51.0,1.6168510913848877,1.0,0.0,39934.0,111.0,0.2893411518059332,0.328096866607666,1.0,1.0,758,lvhc
719,56.0,1.835243940353393,1.0,0.0,39990.0,111.0,0.3912107827942245,0.4504909515380859,0.0,0.0,758,lvhc
720,54.0,1.9081349372863767,1.0,0.0,40044.0,111.0,0.6658413101902636,0.2552490234375,1.0,1.0,758,lvhc
721,56.0,1.7548110485076902,1.0,0.0,40100.0,111.0,0.40432829289541766,0.3547179698944092,1.0,1.0,758,lvhc
722,61.0,1.8083841800689695,1.0,0.0,40161.0,111.0,0.4794158583539416,0.3337829113006592,1.0,1.0,758,lvhc
723,53.0,1.8993608951568604,1.0,0.0,40214.0,111.0,0.6120309075678725,0.30591487884521484,0.0,0.0,758,lvhc
724,56.0,1.6500329971313474,1.0,0.0,40270.0,111.0,0.3457485441979326,0.32590389251708984,1.0,1.0,758,lvhc
725,56.0,1.85607385635376,1.0,0.0,40326.0,111.0,0.5350472785615987,0.3389770984649658,1.0,1.0,758,lvhc
726,54.0,1.6727850437164309,1.0,0.0,40380.0,111.0,0.3747338243422417,0.2953970432281494,1.0,1.0,758,lvhc
727,51.0,1.8397569656372073,1.0,0.0,40431.0,111.0,0.5144507418449416,0.3357648849487305,0.0,0.0,758,lvhc
728,54.0,1.8201611042022705,1.0,0.0,40485.0,111.0,0.567944130544914,0.26450991630554205,0.0,0.0,758,lvhc
729,51.0,1.902959108352661,1.0,0.0,40536.0,111.0,0.6209077856610115,0.27917909622192383,1.0,1.0,758,lvhc
730,56.0,1.6182680130004885,1.0,0.0,40592.0,111.0,0.3229579142530758,0.2962820529937744,1.0,1.0,758,lvhc
731,55.0,1.9561009407043457,1.0,0.0,40647.0,111.0,0.6621028243307117,0.3006939888000488,1.0,1.0,758,lvhc
732,56.0,1.939990997314453,1.0,0.0,40703.0,111.0,0.7020990010945706,0.25373792648315424,1.0,1.0,758,lvhc
733,56.0,1.61883807182312,1.0,0.0,40759.0,111.0,0.3713744023240384,0.2587919235229492,1.0,1.0,758,lvhc
734,54.0,1.6937661170959473,1.0,0.0,40813.0,111.0,0.348607477126886,0.34616398811340326,1.0,1.0,758,lvhc
735,42.0,1.8323829174041748,0.0,0.0,40855.0,111.0,0.5808263459714486,0.26783800125122076,0.0,1.0,758,lvhc
736,56.0,1.887634038925171,1.0,0.0,40911.0,111.0,0.6351452422052212,0.27156019210815424,1.0,1.0,758,lvhc
737,62.0,2.0277519226074214,1.0,0.0,40973.0,111.0,0.7295516481513422,0.3005950450897216,0.0,0.0,758,lvhc
738,61.0,1.6661980152130125,1.0,0.0,41034.0,111.0,0.37952494185383295,0.29907989501953125,1.0,1.0,758,lvhc
739,53.0,1.7336280345916748,1.0,0.0,41087.0,111.0,0.42983137696074697,0.3195581436157226,0.0,0.0,758,lvhc
740,56.0,1.8133108615875249,1.0,0.0,41143.0,111.0,0.5597832881728403,0.27526903152465826,1.0,1.0,758,lvhc
741,54.0,1.8477101325988767,1.0,0.0,41197.0,111.0,0.5741974801376493,0.2826211452484131,1.0,1.0,758,lvhc
742,59.0,1.991788864135742,1.0,0.0,41256.0,111.0,0.7159302785183878,0.288740873336792,0.0,0.0,758,lvhc
743,59.0,2.0433528423309326,1.0,0.0,41315.0,111.0,0.5928484443769754,0.4477849006652832,0.0,0.0,758,lvhc
744,55.0,1.7909011840820315,1.0,0.0,41370.0,111.0,0.5505551404248984,0.25042200088500977,0.0,0.0,758,lvhc
745,52.0,1.651437044143677,1.0,0.0,41422.0,111.0,0.36892299923433214,0.28458595275878906,0.0,0.0,758,lvhc
746,54.0,2.076045989990234,1.0,0.0,41476.0,111.0,0.628125854946983,0.4535708427429199,1.0,1.0,758,lvhc
747,57.0,2.5972399711608887,1.0,0.0,41533.0,111.0,0.625499985025124,0.9849581718444824,0.0,0.0,758,lvhc
748,53.0,1.8082399368286128,1.0,0.0,41586.0,111.0,0.31745581173238313,0.4950649738311768,1.0,1.0,758,lvhc
749,49.0,2.21740198135376,0.0,0.0,41635.0,111.0,0.7178696376034275,0.5024800300598145,1.0,0.0,758,lvhc
750,52.0,1.9819788932800289,1.0,0.0,41687.0,111.0,0.6500203769725171,0.33383297920227045,0.0,0.0,758,lvhc
751,51.0,1.7397160530090332,1.0,0.0,41738.0,111.0,0.40673370641387335,0.331583023071289,1.0,1.0,758,lvhc
752,57.0,1.6029930114746092,1.0,0.0,41795.0,111.0,0.3265452033004825,0.27632689476013184,0.0,0.0,758,lvhc
753,53.0,1.7652909755706787,1.0,0.0,41848.0,111.0,0.4917247910010711,0.2873358726501465,1.0,1.0,758,lvhc
754,56.0,1.5832250118255615,1.0,0.0,41904.0,111.0,0.3252072630810304,0.26576805114746094,0.0,0.0,758,lvhc
755,52.0,1.8181080818176267,1.0,0.0,41956.0,111.0,0.5598216564041296,0.26747298240661616,0.0,0.0,758,lvhc
756,55.0,1.8364920616149905,1.0,0.0,42011.0,111.0,0.6129947257586373,0.2358851432800293,1.0,1.0,758,lvhc
757,55.0,1.897273063659668,1.0,0.0,42066.0,111.0,0.6769488976315703,0.2375941276550293,1.0,1.0,758,lvhc
758,54.0,1.529237985610962,1.0,0.0,42120.0,111.0,0.2566829483732637,0.28262495994567877,0.0,0.0,758,lvhc
759,50.0,2.128793954849243,0.0,0.0,42170.0,111.0,0.68511560404403,0.4603240489959717,0.0,1.0,758,lvhc
760,40.0,1.7037830352783203,0.0,0.0,42210.0,111.0,0.37262200536288004,0.3301668167114258,1.0,0.0,758,lvhc
761,55.0,2.25781798362732,1.0,0.0,42265.0,111.0,0.3472472201628366,0.9232749938964844,0.0,0.0,758,lvhc
762,47.0,2.0370960235595703,0.0,0.0,42312.0,111.0,0.5675142358944671,0.4912900924682617,1.0,0.0,758,lvhc
763,52.0,1.6439239978790283,1.0,0.0,42364.0,111.0,0.3950564509119184,0.25543284416198725,0.0,0.0,758,lvhc
764,52.0,2.0043859481811523,1.0,0.0,42416.0,111.0,0.7324814676766866,0.29414486885070795,0.0,0.0,758,lvhc
765,53.0,1.934288024902344,1.0,0.0,42469.0,111.0,0.6336674395748851,0.3014981746673584,1.0,1.0,758,lvhc
766,56.0,1.560810089111328,1.0,0.0,42525.0,111.0,0.294893535535907,0.2682719230651856,0.0,0.0,758,lvhc
767,60.0,1.841506004333496,1.0,0.0,42585.0,111.0,0.5528500437232621,0.2962980270385742,1.0,1.0,758,lvhc
768,53.0,2.0439419746398926,1.0,0.0,42638.0,111.0,0.5804929496771254,0.4673788547515869,0.0,0.0,758,lvhc
769,36.0,2.0479030609130855,0.0,1.0,42674.0,112.0,0.5948429036169686,0.4770917892456055,1.0,0.0,758,lvhc
770,64.0,2.0899920463562007,1.0,0.0,42738.0,112.0,0.734824632501282,0.3681819438934327,1.0,1.0,758,lvhc
771,57.0,1.9998309612274172,1.0,0.0,42795.0,112.0,0.701445396237729,0.29521989822387695,0.0,0.0,758,lvhc
772,57.0,1.591315984725952,1.0,0.0,42852.0,112.0,0.29324419877545344,0.2963030338287353,0.0,0.0,758,lvhc
773,57.0,1.804419994354248,1.0,0.0,42909.0,112.0,0.4975647117902616,0.3200569152832031,0.0,0.0,758,lvhc
774,56.0,1.6414868831634521,1.0,0.0,42965.0,112.0,0.3725904884295365,0.2910900115966797,1.0,1.0,758,lvhc
775,60.0,1.8953170776367183,1.0,0.0,43025.0,112.0,0.5344808456184287,0.3731489181518554,1.0,1.0,758,lvhc
776,65.0,1.8533029556274412,1.0,0.0,43090.0,112.0,0.587814522886534,0.2672030925750732,0.0,0.0,758,lvhc
777,53.0,1.652194023132324,1.0,0.0,43143.0,112.0,0.2903281838061486,0.37027406692504883,0.0,0.0,758,lvhc
778,59.0,1.903115034103393,1.0,0.0,43202.0,112.0,0.2602397784889339,0.6483199596405029,1.0,1.0,758,lvhc
779,63.0,1.8904728889465328,1.0,0.0,43265.0,112.0,0.5338559300250646,0.37448096275329595,0.0,0.0,758,lvhc
780,55.0,2.0356340408325195,1.0,0.0,43320.0,112.0,0.6860732121392152,0.36144590377807617,1.0,1.0,758,lvhc
781,63.0,1.6795389652252195,1.0,0.0,43383.0,112.0,0.3993357886966013,0.2861521244049072,0.0,0.0,758,lvhc
782,57.0,2.007338047027588,1.0,0.0,43440.0,112.0,0.6065480123357243,0.4068970680236816,1.0,1.0,758,lvhc
783,59.0,1.610457181930542,1.0,0.0,43499.0,112.0,0.35068048520062334,0.27597212791442877,0.0,0.0,758,lvhc
784,62.0,1.7928438186645506,1.0,0.0,43561.0,112.0,0.4102125075507495,0.3773338794708252,0.0,0.0,758,lvhc
785,57.0,2.281500816345215,1.0,0.0,43618.0,112.0,0.5583293976185553,0.7311151027679443,0.0,0.0,758,lvhc
786,56.0,2.0751481056213374,1.0,0.0,43674.0,112.0,0.666799804580454,0.4248859882354736,0.0,0.0,758,lvhc
787,52.0,1.6557960510253906,1.0,0.0,43726.0,112.0,0.28972816641107774,0.37554001808166493,1.0,1.0,758,lvhc
788,60.0,2.052278995513916,1.0,0.0,43786.0,112.0,0.7083533073825585,0.35060906410217285,1.0,1.0,758,lvhc
789,61.0,2.1038908958435054,1.0,0.0,43847.0,112.0,0.6124012629563674,0.4967000484466553,0.0,0.0,758,lvhc
790,60.0,1.8301250934600832,1.0,0.0,43907.0,112.0,0.5760218881723288,0.2758610248565673,1.0,1.0,758,lvhc
791,56.0,1.6396410465240476,1.0,0.0,43963.0,112.0,0.33264363881621284,0.31748890876770014,1.0,1.0,758,lvhc
792,57.0,2.016103029251098,1.0,0.0,44020.0,112.0,0.4653560962365818,0.5506958961486816,0.0,0.0,758,lvhc
793,61.0,1.7007770538330076,1.0,0.0,44081.0,112.0,0.4329203479145644,0.261397123336792,0.0,0.0,758,lvhc
794,66.0,1.7697820663452148,1.0,0.0,44147.0,112.0,0.4860424172235194,0.29210400581359863,1.0,1.0,758,lvhc
795,57.0,1.764159917831421,1.0,0.0,44204.0,112.0,0.4836281205466281,0.2924349308013916,0.0,0.0,758,lvhc
796,57.0,2.028059005737305,1.0,0.0,44261.0,112.0,0.6449585383294063,0.39185190200805664,1.0,1.0,758,lvhc
797,63.0,2.0186049938201904,1.0,0.0,44324.0,112.0,0.6802531622951834,0.34822177886962885,0.0,0.0,758,lvhc
798,64.0,1.80830192565918,1.0,0.0,44388.0,112.0,0.538797844565392,0.2917070388793945,1.0,1.0,758,lvhc
799,56.0,1.80676794052124,1.0,0.0,44444.0,112.0,0.3958077650579652,0.4200630187988281,1.0,1.0,758,lvhc
800,51.0,1.7928111553192139,1.0,0.0,44495.0,112.0,0.3887032489643574,0.4211587905883789,1.0,1.0,758,lvhc
801,61.0,1.920785903930664,1.0,0.0,44556.0,112.0,0.3263455694102011,0.5991778373718262,0.0,0.0,758,lvhc
802,63.0,2.1629750728607178,1.0,0.0,44619.0,112.0,0.4891716221559571,0.6865561008453368,0.0,0.0,758,lvhc
803,59.0,1.8514020442962649,1.0,0.0,44678.0,112.0,0.4074408933696519,0.4460721015930176,0.0,0.0,758,lvhc
804,54.0,1.741974115371704,1.0,0.0,44732.0,112.0,0.3995036687997834,0.3490991592407226,0.0,0.0,758,lvhc
805,61.0,2.008275985717773,1.0,0.0,44793.0,112.0,0.5410606587324909,0.4761788845062255,1.0,1.0,758,lvhc
806,57.0,1.9416449069976809,1.0,0.0,44850.0,112.0,0.3995816621862715,0.5502421855926514,0.0,0.0,758,lvhc
807,60.0,1.75036883354187,1.0,0.0,44910.0,112.0,0.28351264111075,0.4733970165252686,0.0,0.0,758,lvhc
808,56.0,1.943767070770264,1.0,0.0,44966.0,112.0,0.3273039459012215,0.6223800182342529,1.0,1.0,758,lvhc
809,56.0,1.9759130477905276,1.0,0.0,45022.0,112.0,0.7029232761725253,0.28512501716613764,0.0,0.0,758,lvhc
810,64.0,1.770068883895874,1.0,0.0,45086.0,112.0,0.473316803678016,0.3058090209960937,1.0,1.0,758,lvhc
811,61.0,1.8544759750366209,1.0,0.0,45147.0,112.0,0.5777326662109842,0.27921509742736816,1.0,1.0,758,lvhc
812,62.0,1.751126050949097,1.0,0.0,45209.0,112.0,0.4124805254104285,0.3482739925384521,1.0,1.0,758,lvhc
813,56.0,1.75238299369812,1.0,0.0,45265.0,112.0,0.3982478075113597,0.3602361679077148,1.0,1.0,758,lvhc
814,62.0,1.9282770156860352,1.0,0.0,45327.0,112.0,0.5931008335235561,0.352396011352539,1.0,1.0,758,lvhc
815,56.0,1.6344358921051023,1.0,0.0,45383.0,112.0,0.3445157056458246,0.3081040382385254,0.0,0.0,758,lvhc
816,62.0,1.648432970046997,1.0,0.0,45445.0,112.0,0.3763207486529934,0.2857658863067627,1.0,1.0,758,lvhc
817,0.0,3.6458468437194815,1.0,-1.0,45445.0,112.0,0.422245810975782,2.211843967437744,0.0,0.0,758,lvhc
818,61.0,1.5476291179656985,1.0,0.0,45506.0,112.0,0.2867014176979629,0.26897501945495605,0.0,0.0,758,lvhc
819,60.0,1.8203320503234863,1.0,0.0,45566.0,112.0,0.5569210298550836,0.26706695556640625,1.0,1.0,758,lvhc
820,60.0,1.712970018386841,1.0,0.0,45626.0,112.0,0.4700339994139002,0.25343704223632807,0.0,0.0,758,lvhc
821,57.0,1.8316640853881836,1.0,0.0,45683.0,112.0,0.5850229476242473,0.24584388732910165,1.0,1.0,758,lvhc
822,57.0,1.567168951034546,1.0,0.0,45740.0,112.0,0.3025512909061982,0.26355409622192383,0.0,0.0,758,lvhc
823,61.0,1.5523269176483154,1.0,0.0,45801.0,112.0,0.25499497591420345,0.3039331436157226,1.0,1.0,758,lvhc
824,60.0,1.86968994140625,1.0,0.0,45861.0,112.0,0.4745417214059028,0.40596604347229,1.0,1.0,758,lvhc
825,55.0,1.5953710079193115,1.0,0.0,45916.0,112.0,0.28685159074268657,0.3194129467010498,1.0,1.0,758,lvhc
826,64.0,1.8706741333007808,1.0,0.0,45980.0,112.0,0.5572955955129069,0.3234419822692871,0.0,0.0,758,lvhc
827,59.0,1.4926841259002686,1.0,0.0,46039.0,112.0,0.2503997123124761,0.25686788558959966,0.0,0.0,758,lvhc
828,65.0,1.672998905181885,1.0,0.0,46104.0,112.0,0.3566750822955308,0.3179299831390381,0.0,0.0,758,lvhc
829,60.0,1.8513729572296145,1.0,0.0,46164.0,112.0,0.5579299009709303,0.2932710647583008,1.0,1.0,758,lvhc
830,57.0,1.793429136276245,1.0,0.0,46221.0,112.0,0.5514221701944759,0.26036596298217773,1.0,1.0,758,lvhc
831,56.0,1.776236057281494,1.0,0.0,46277.0,112.0,0.5277987671294202,0.24743580818176264,1.0,1.0,758,lvhc
832,63.0,1.9322199821472168,1.0,0.0,46340.0,112.0,0.7099142757369101,0.2438099384307861,0.0,0.0,758,lvhc
833,62.0,1.5426559448242188,1.0,0.0,46402.0,112.0,0.2530931175766924,0.31152296066284174,0.0,0.0,758,lvhc
834,56.0,1.8076050281524656,1.0,0.0,46458.0,112.0,0.493880837606628,0.31261610984802246,0.0,0.0,758,lvhc
835,66.0,1.6547279357910156,1.0,0.0,46524.0,112.0,0.4487397054192446,0.22565293312072754,0.0,0.0,758,lvhc
836,57.0,1.9812858104705808,1.0,0.0,46581.0,112.0,0.6632079525994341,0.3201019763946533,1.0,1.0,758,lvhc
837,61.0,1.9112200736999512,1.0,0.0,46642.0,112.0,0.6911123365418516,0.2444617748260498,0.0,0.0,758,lvhc
838,62.0,1.9454989433288572,1.0,0.0,46704.0,112.0,0.7033941149633701,0.2548699378967285,1.0,1.0,758,lvhc
839,62.0,1.7175891399383545,1.0,0.0,46766.0,112.0,0.4546472047769624,0.2669551372528076,0.0,0.0,758,lvhc
840,65.0,1.9375960826873777,1.0,0.0,46831.0,112.0,0.5589132077749103,0.3833420276641846,1.0,1.0,758,lvhc
841,60.0,1.91968297958374,1.0,0.0,46891.0,112.0,0.5952886286316612,0.32905697822570806,1.0,1.0,758,lvhc
842,65.0,1.6270489692687988,1.0,0.0,46956.0,112.0,0.37266719961604255,0.26352810859680176,1.0,1.0,758,lvhc
843,57.0,1.971790075302124,1.0,0.0,47013.0,112.0,0.6442792102856822,0.3432509899139404,1.0,1.0,758,lvhc
844,61.0,1.6101570129394531,1.0,0.0,47074.0,112.0,0.3048453723524062,0.319580078125,1.0,1.0,758,lvhc
845,56.0,1.922132968902588,1.0,0.0,47130.0,112.0,0.5934357111045288,0.3319911956787109,0.0,0.0,758,lvhc
846,59.0,1.8529691696166992,1.0,0.0,47189.0,112.0,0.5465378995692856,0.3133859634399414,1.0,1.0,758,lvhc
847,57.0,1.6237149238586424,1.0,0.0,47246.0,112.0,0.4038049957514416,0.228485107421875,0.0,0.0,758,lvhc
848,56.0,1.7985029220581055,1.0,0.0,47302.0,112.0,0.4689549600521348,0.33125114440917963,1.0,1.0,758,lvhc
849,59.0,1.7972030639648435,1.0,0.0,47361.0,112.0,0.4996070140536463,0.3022429943084717,0.0,0.0,758,lvhc
850,56.0,2.037322998046875,1.0,0.0,47417.0,112.0,0.703436436738303,0.3283519744873047,1.0,1.0,758,lvhc
851,57.0,1.7818398475646975,1.0,0.0,47474.0,112.0,0.3856970883318051,0.4040858745574951,1.0,1.0,758,lvhc
852,64.0,1.7723391056060793,1.0,0.0,47538.0,112.0,0.4913332559547344,0.2877979278564453,0.0,0.0,758,lvhc
853,56.0,1.8380298614501955,1.0,0.0,47594.0,112.0,0.5793451120296728,0.2751450538635254,0.0,0.0,758,lvhc
854,62.0,1.8577001094818115,1.0,0.0,47656.0,112.0,0.5704615931679574,0.3109159469604492,0.0,0.0,758,lvhc
855,57.0,1.7914199829101562,1.0,0.0,47713.0,112.0,0.4953920425357991,0.2962889671325684,0.0,0.0,758,lvhc
856,62.0,1.5996410846710205,1.0,0.0,47775.0,112.0,0.3952007639949476,0.2270379066467285,0.0,0.0,758,lvhc
857,57.0,2.0244340896606445,1.0,0.0,47832.0,112.0,0.6694174064994958,0.3650608062744141,1.0,1.0,758,lvhc
858,61.0,1.736111879348755,1.0,0.0,47893.0,112.0,0.439213427342309,0.30588388442993164,1.0,1.0,758,lvhc
859,60.0,2.04953408241272,1.0,0.0,47953.0,112.0,0.7052109413301775,0.35754609107971197,0.0,0.0,758,lvhc
860,60.0,1.8077919483184817,1.0,0.0,48013.0,112.0,0.5467991400955008,0.27264595031738276,1.0,1.0,758,lvhc
861,56.0,1.8154540061950684,1.0,0.0,48069.0,112.0,0.5454443472372587,0.29270792007446284,0.0,0.0,758,lvhc
862,59.0,2.0508568286895748,1.0,0.0,48128.0,112.0,0.7461928204111103,0.31308698654174805,0.0,0.0,758,lvhc
863,59.0,1.5588970184326172,1.0,0.0,48187.0,112.0,0.25568134223478817,0.32314205169677734,1.0,1.0,758,lvhc
864,56.0,1.7247841358184812,1.0,0.0,48243.0,112.0,0.2805162645137802,0.4525361061096192,0.0,0.0,758,lvhc
865,57.0,2.0119969844818115,1.0,0.0,48300.0,112.0,0.5256972837438507,0.4979751110076904,1.0,1.0,758,lvhc
866,62.0,1.8343150615692136,1.0,0.0,48362.0,112.0,0.5267446572311567,0.31532382965087885,1.0,1.0,758,lvhc
867,55.0,1.8565690517425537,1.0,0.0,48417.0,112.0,0.5000616168969315,0.3720650672912598,1.0,1.0,758,lvhc
868,63.0,1.592112064361572,1.0,0.0,48480.0,112.0,0.2758451785071289,0.3154771327972412,0.0,0.0,758,lvhc
869,62.0,2.044021844863892,1.0,0.0,48542.0,112.0,0.6861693277378049,0.37718200683593756,0.0,0.0,758,lvhc
870,59.0,1.8211569786071775,1.0,0.0,48601.0,112.0,0.4909551792876019,0.3302500247955322,0.0,0.0,758,lvhc
871,44.0,1.9290230274200444,0.0,1.0,48645.0,111.0,0.6365974306007768,0.2976629734039306,0.0,1.0,758,lvhc
872,56.0,1.7448129653930662,1.0,0.0,48701.0,111.0,0.3318182257184224,0.4133889675140381,1.0,1.0,758,lvhc
873,56.0,1.8381679058074951,1.0,0.0,48757.0,111.0,0.5032091364259412,0.34715914726257324,0.0,0.0,758,lvhc
874,42.0,1.934978008270264,0.0,0.0,48799.0,111.0,0.6381276625956023,0.2982490062713623,0.0,1.0,758,lvhc
875,56.0,1.7559571266174316,1.0,0.0,48855.0,111.0,0.4277253900419881,0.3299028873443604,1.0,1.0,758,lvhc
876,60.0,1.8862280845642088,1.0,0.0,48915.0,111.0,0.5305711493476596,0.37297201156616205,1.0,1.0,758,lvhc
877,60.0,1.7768747806549072,1.0,0.0,48975.0,111.0,0.4576142872295401,0.3296918869018554,0.0,0.0,758,lvhc
878,61.0,1.87305998802185,1.0,0.0,49036.0,111.0,0.5307032657225481,0.35040402412414556,0.0,0.0,758,lvhc
879,55.0,1.6612670421600337,1.0,0.0,49091.0,111.0,0.3755360714939845,0.30284094810485834,0.0,0.0,758,lvhc
880,56.0,1.841944932937622,1.0,0.0,49147.0,111.0,0.5174125106496001,0.3372480869293213,1.0,1.0,758,lvhc
881,56.0,1.5736541748046875,1.0,0.0,49203.0,111.0,0.2913781454060268,0.2883119583129883,1.0,1.0,758,lvhc
882,60.0,2.1654858589172363,1.0,0.0,49263.0,111.0,0.7397921399269864,0.4416549205780029,1.0,1.0,758,lvhc
883,56.0,1.8141770362854004,1.0,0.0,49319.0,111.0,0.5542875828138188,0.26412105560302734,0.0,0.0,758,lvhc
884,56.0,1.6978960037231443,1.0,0.0,49375.0,111.0,0.35246442927449506,0.35953807830810547,0.0,0.0,758,lvhc
885,54.0,2.1234819889068604,1.0,0.0,49429.0,111.0,0.7422820161530524,0.38054013252258306,0.0,0.0,758,lvhc
886,57.0,1.99314284324646,1.0,0.0,49486.0,111.0,0.6689137668578844,0.3279979228973389,1.0,1.0,758,lvhc
887,50.0,1.770806074142456,1.0,0.0,49536.0,111.0,0.44008291809430716,0.3400039672851562,1.0,1.0,758,lvhc
888,55.0,1.7928321361541748,1.0,0.0,49591.0,111.0,0.4995563573225857,0.29642510414123535,1.0,1.0,758,lvhc
889,45.0,1.849256992340088,0.0,0.0,49636.0,111.0,0.4989081584368033,0.3584609031677246,0.0,1.0,758,lvhc
890,60.0,1.7040789127349851,1.0,0.0,49696.0,111.0,0.31993818935760066,0.3785700798034668,1.0,1.0,758,lvhc
891,57.0,2.0787761211395264,1.0,0.0,49753.0,111.0,0.5985134781383186,0.4845850467681885,0.0,0.0,758,lvhc
892,59.0,1.6404221057891841,1.0,0.0,49812.0,111.0,0.33927679606627226,0.2963509559631348,0.0,0.0,758,lvhc
893,44.0,1.6181728839874268,0.0,0.0,49856.0,111.0,0.30755580052985204,0.31102800369262695,1.0,0.0,758,lvhc
894,54.0,1.8275749683380127,1.0,0.0,49910.0,111.0,0.5349743887674052,0.3004639148712159,1.0,1.0,758,lvhc
895,61.0,2.015868902206421,1.0,0.0,49971.0,111.0,0.7340795434848258,0.2851381301879883,1.0,1.0,758,lvhc
896,55.0,1.857156991958618,1.0,0.0,50026.0,111.0,0.5747908870677667,0.2785978317260742,0.0,0.0,758,lvhc
897,57.0,1.665286064147949,1.0,0.0,50083.0,111.0,0.3570582718836685,0.32074499130249023,1.0,1.0,758,lvhc
898,57.0,1.9137220382690427,1.0,0.0,50140.0,111.0,0.5706443914402236,0.3570880889892578,1.0,1.0,758,lvhc
899,52.0,1.6729531288146973,1.0,0.0,50192.0,111.0,0.3771834028841881,0.30644488334655756,0.0,0.0,758,lvhc
900,56.0,2.1063969135284424,1.0,0.0,50248.0,111.0,0.6167314224299135,0.497809886932373,0.0,0.0,758,lvhc
901,52.0,1.6944780349731443,1.0,0.0,50300.0,111.0,0.34493873816062587,0.34619116783142084,0.0,0.0,758,lvhc
902,57.0,2.1618540287017822,1.0,0.0,50357.0,111.0,0.7064991245668997,0.4719829559326172,0.0,0.0,758,lvhc
903,56.0,1.844856023788452,1.0,0.0,50413.0,111.0,0.26858543167405424,0.5803978443145752,0.0,0.0,758,lvhc
904,56.0,2.1553049087524414,1.0,0.0,50469.0,111.0,0.7234841891005843,0.441478967666626,0.0,0.0,758,lvhc
905,60.0,1.855391025543213,1.0,0.0,50529.0,111.0,0.5125263995975429,0.3595459461212159,0.0,0.0,758,lvhc
906,54.0,1.8920021057128904,1.0,0.0,50583.0,111.0,0.43802934066790733,0.4735689163208008,0.0,0.0,758,lvhc
907,56.0,1.8569900989532473,1.0,0.0,50639.0,111.0,0.461732663402054,0.400663137435913,0.0,0.0,758,lvhc
908,56.0,1.881242036819458,1.0,0.0,50695.0,111.0,0.3265388742081243,0.572749137878418,1.0,1.0,758,lvhc
909,41.0,1.722399950027466,0.0,0.0,50736.0,111.0,0.3823075424510866,0.3604300022125244,1.0,0.0,758,lvhc
910,55.0,1.8716449737548828,1.0,0.0,50791.0,111.0,0.4206459824600562,0.4462239742279053,1.0,1.0,758,lvhc
911,62.0,2.084887981414795,1.0,0.0,50853.0,111.0,0.7219983815494236,0.36662411689758306,1.0,1.0,758,lvhc
912,59.0,2.3388512134552,1.0,0.0,50912.0,111.0,0.4944622562611386,0.8503150939941407,0.0,0.0,758,lvhc
913,51.0,1.57519793510437,1.0,0.0,50963.0,111.0,0.30330042487806164,0.2940239906311035,0.0,0.0,758,lvhc
914,56.0,1.6123311519622805,1.0,0.0,51019.0,111.0,0.26575936825723434,0.3578040599822998,1.0,1.0,758,lvhc
915,55.0,2.0563898086547843,1.0,0.0,51074.0,111.0,0.5219373982649702,0.5341329574584961,0.0,0.0,758,lvhc
916,59.0,1.9990069866180415,1.0,0.0,51133.0,111.0,0.6875141112398132,0.32021880149841303,1.0,1.0,758,lvhc
917,60.0,1.5306408405303955,1.0,0.0,51193.0,111.0,0.30200470003671454,0.23035407066345215,0.0,0.0,758,lvhc
918,56.0,2.126065969467163,1.0,0.0,51249.0,111.0,0.4945875264411378,0.6369950771331788,0.0,0.0,758,lvhc
919,55.0,1.694552183151245,1.0,0.0,51304.0,111.0,0.3227653077068546,0.3903739452362061,0.0,0.0,758,lvhc
920,55.0,1.8942890167236328,1.0,0.0,51359.0,111.0,0.5169342250260051,0.3854770660400391,1.0,1.0,758,lvhc
921,60.0,1.5309979915618896,1.0,0.0,51419.0,111.0,0.2815764436736948,0.2525599002838135,0.0,0.0,758,lvhc
922,59.0,2.089380979537964,1.0,0.0,51478.0,111.0,0.5208041405759308,0.5799460411071777,0.0,0.0,758,lvhc
923,50.0,1.806087017059326,1.0,0.0,51528.0,111.0,0.4770014966266513,0.3399820327758789,0.0,0.0,758,lvhc
924,61.0,1.85445499420166,1.0,0.0,51589.0,111.0,0.5647855899425893,0.2971329689025879,1.0,1.0,758,lvhc
925,54.0,1.721553087234497,1.0,0.0,51643.0,111.0,0.3866015251797714,0.35714602470397944,1.0,1.0,758,lvhc
926,59.0,1.9645531177520752,1.0,0.0,51702.0,111.0,0.4178866864294893,0.5478711128234863,0.0,0.0,758,lvhc
927,61.0,1.7976088523864744,1.0,0.0,51763.0,111.0,0.3822741422625786,0.42525482177734375,0.0,0.0,758,lvhc
928,57.0,1.9773921966552732,1.0,0.0,51820.0,111.0,0.44300026264779085,0.5423069000244141,0.0,0.0,758,lvhc
929,61.0,1.8384068012237549,1.0,0.0,51881.0,111.0,0.5314182869443055,0.31969213485717773,1.0,1.0,758,lvhc
930,52.0,1.7297990322113037,1.0,0.0,51933.0,111.0,0.44469590153978583,0.29349207878112793,0.0,0.0,758,lvhc
931,55.0,1.7538402080535889,1.0,0.0,51988.0,111.0,0.3487428254999131,0.41714692115783686,0.0,0.0,758,lvhc
932,61.0,2.058816909790039,1.0,0.0,52049.0,111.0,0.740578084586824,0.32623291015625,1.0,1.0,758,lvhc
933,56.0,1.5497820377349851,1.0,0.0,52105.0,111.0,0.340856811008074,0.21640992164611814,0.0,0.0,758,lvhc
934,53.0,1.7074968814849854,1.0,0.0,52158.0,111.0,0.4816111722741697,0.23767590522766116,1.0,1.0,758,lvhc
935,51.0,1.9462308883666992,1.0,0.0,52209.0,111.0,0.4945645158195601,0.4697449207305908,1.0,1.0,758,lvhc
936,56.0,2.088819026947021,1.0,0.0,52265.0,111.0,0.7498883943980968,0.35781311988830566,1.0,1.0,758,lvhc
937,63.0,1.8283760547637935,1.0,0.0,52328.0,111.0,0.5285695026307449,0.2968840599060058,1.0,1.0,758,lvhc
938,36.0,2.0070722103118896,0.0,0.0,52364.0,111.0,0.6855662768042324,0.34025406837463373,0.0,1.0,758,lvhc
939,41.0,1.8434739112854004,0.0,0.0,52405.0,111.0,0.4959800006095443,0.346696138381958,0.0,1.0,758,lvhc
940,56.0,1.6857659816741943,1.0,0.0,52461.0,111.0,0.34863678587291314,0.3454539775848389,1.0,1.0,758,lvhc
941,60.0,1.6469700336456297,1.0,0.0,52521.0,111.0,0.3124042880737504,0.3550708293914795,0.0,0.0,758,lvhc
942,54.0,1.8807599544525144,1.0,0.0,52575.0,111.0,0.6262243904383149,0.2762138843536377,0.0,0.0,758,lvhc
943,57.0,1.9668188095092771,1.0,0.0,52632.0,111.0,0.6598005086551553,0.31290507316589355,1.0,1.0,758,lvhc
944,55.0,1.8444998264312744,1.0,0.0,52687.0,111.0,0.5378081082260124,0.3193612098693849,1.0,1.0,758,lvhc
945,60.0,1.7131431102752686,1.0,0.0,52747.0,111.0,0.3512523751795385,0.37739992141723633,1.0,1.0,758,lvhc
946,55.0,1.6209290027618406,1.0,0.0,52802.0,111.0,0.3056169328592308,0.32276105880737305,0.0,0.0,758,lvhc
947,54.0,1.729562044143677,1.0,0.0,52856.0,111.0,0.4184967877667026,0.3121638298034668,1.0,1.0,758,lvhc
948,57.0,1.91707706451416,1.0,0.0,52913.0,111.0,0.585470033485775,0.33299207687377924,0.0,0.0,758,lvhc
949,56.0,1.940890073776245,1.0,0.0,52969.0,111.0,0.5598126816877258,0.3914320468902588,0.0,0.0,758,lvhc
950,55.0,1.7740468978881838,1.0,0.0,53024.0,111.0,0.4673820392657105,0.31207990646362305,1.0,1.0,758,lvhc
951,53.0,2.1698570251464844,1.0,0.0,53077.0,111.0,0.6871031815006753,0.4828059673309326,1.0,1.0,758,lvhc
952,53.0,1.5985281467437744,1.0,0.0,53130.0,111.0,0.28610706268420344,0.32816600799560547,0.0,0.0,758,lvhc
953,59.0,1.7781758308410645,1.0,0.0,53189.0,111.0,0.26441184586342076,0.5182671546936035,1.0,1.0,758,lvhc
